# FILE      =  Cold.ast
# NOTEA     = GPIOLabs 8"horn Pi#7
# NOTEB     = Spectral Integration AIRSPY-mini Test
# OBSERVER  = Science Aficionado
# DEVICE    = airspy,bias=0
# DATADIR   = ../data/
# SITE      = GPIOLabs 8"horn Pi#7
# CITY      = Green Bank
# REGION    = West Virginia
# COUNTRY   = US
# TELTYPE   = Bubble Wrap  Horn
# FRAME     = TOPO
# GAIN1     = 17.0
# GAIN2     = 0.0
# GAIN3     = 0.0
# GAIN4     = 0.0
# Count     = 40941
# REFFREQ   = 1420405751.768
# OBSFREQ   = 1421500000.0
# OBSBW     = 6000000.0
# Duration  = 12.543115
# DeltaX    = 5859.375
# TSYS      = 200.0
# TRX       = 100.0
# TRMS      = 2.0
# TINT      = 1.0
# KPERC     = 100.0
# GAINFACT  = 1.0
# BUNIT     = Counts
# NCHAN     = 2048
# NSPEC     = 1
# NTIME     = 0
# NSAMPLES  = 0
# EPEAK     = 4.10875183718
# ERMS      = 0.995973393526
# EMJD      = 58568.808999981004 
# REFCHAN   = 1024.0
# REFSAMPL  = 256.0
# NAVE      = 40941
# NMEDIAN   = 1024
# Fft_rate  = 5000
# UTC       = 2021-12-08 21:34:13.429186
# SECONDS   =       0.0000000000 
# LST       = 01:25:27.828
# AZ        = 0.0
# EL        = 90.0
# TELLON    = -79:50:22.920
# TELLAT    = +38:25:59.160
# TELALT    = 0.0
# RA        = 09:19:38.400
# DEC       = +06:45:09.600
# GALLON    = 224:54:45.00
# GALLAT    = +35:52:58.60
# ALT_SUN   = +04:07:48.8
# AZ_SUN    = +236:35:06.5
# ETAA      = 0.8
# ETAB      = 0.99
# POLANGLE  = 0.0
# TELSIZEAM = 1.0
# TELSIZEBM = 1.0
# AST_VERS  = 5.0.1
# N  Frequency  Intensity 
#       (Hz)    (Counts) 
0000 1418500000 10.1207
0001 1418502929 10.6425
0002 1418505859 10.0438
0003 1418508789 11.7238
0004 1418511718 7.0612
0005 1418514648 15.9334
0006 1418517578 16.1709
0007 1418520507 8.6154
0008 1418523437 22.3771
0009 1418526367 13.6410
0010 1418529296 10.5862
0011 1418532226 21.3747
0012 1418535156 10.1812
0013 1418538085 11.8476
0014 1418541015 15.9914
0015 1418543945 9.1087
0016 1418546875 11.9473
0017 1418549804 11.8591
0018 1418552734 9.3607
0019 1418555664 10.9801
0020 1418558593 10.3410
0021 1418561523 9.8879
0022 1418564453 10.4318
0023 1418567382 10.4672
0024 1418570312 11.0113
0025 1418573242 11.1822
0026 1418576171 11.8295
0027 1418579101 14.4783
0028 1418582031 13.4236
0029 1418584960 23.0435
0030 1418587890 70.9979
0031 1418590820 29.5593
0032 1418593750 18.8161
0033 1418596679 21.0282
0034 1418599609 14.6513
0035 1418602539 14.8109
0036 1418605468 15.2446
0037 1418608398 15.3618
0038 1418611328 15.9898
0039 1418614257 16.4756
0040 1418617187 17.0185
0041 1418620117 17.6976
0042 1418623046 18.3916
0043 1418625976 19.0656
0044 1418628906 19.8487
0045 1418631835 20.6058
0046 1418634765 21.3752
0047 1418637695 22.3794
0048 1418640625 23.3302
0049 1418643554 24.2958
0050 1418646484 25.2792
0051 1418649414 26.4326
0052 1418652343 27.7343
0053 1418655273 28.9077
0054 1418658203 30.5449
0055 1418661132 32.4599
0056 1418664062 33.4952
0057 1418666992 35.7465
0058 1418669921 37.0878
0059 1418672851 38.7412
0060 1418675781 44.9328
0061 1418678710 44.3712
0062 1418681640 50.0730
0063 1418684570 58.0822
0064 1418687500 49.5258
0065 1418690429 50.4585
0066 1418693359 53.1917
0067 1418696289 55.5173
0068 1418699218 58.4316
0069 1418702148 61.0811
0070 1418705078 64.2341
0071 1418708007 67.1966
0072 1418710937 70.5398
0073 1418713867 74.4232
0074 1418716796 78.2071
0075 1418719726 82.3393
0076 1418722656 86.5623
0077 1418725585 90.8959
0078 1418728515 95.9188
0079 1418731445 100.4269
0080 1418734375 105.3207
0081 1418737304 110.4335
0082 1418740234 115.7994
0083 1418743164 122.1176
0084 1418746093 128.3075
0085 1418749023 134.7594
0086 1418751953 141.1761
0087 1418754882 149.0683
0088 1418757812 156.4116
0089 1418760742 163.5115
0090 1418763671 172.8618
0091 1418766601 181.0029
0092 1418769531 194.9136
0093 1418772460 213.5647
0094 1418775390 211.0005
0095 1418778320 219.2400
0096 1418781250 228.2353
0097 1418784179 239.6361
0098 1418787109 251.2567
0099 1418790039 262.7346
0100 1418792968 274.7271
0101 1418795898 288.3582
0102 1418798828 301.3228
0103 1418801757 314.8431
0104 1418804687 331.1977
0105 1418807617 344.6505
0106 1418810546 361.4792
0107 1418813476 377.4916
0108 1418816406 395.9119
0109 1418819335 413.8873
0110 1418822265 429.9896
0111 1418825195 453.0685
0112 1418828125 481.3673
0113 1418831054 507.5316
0114 1418833984 531.5121
0115 1418836914 551.2734
0116 1418839843 561.8577
0117 1418842773 581.8400
0118 1418845703 606.2415
0119 1418848632 633.9099
0120 1418851562 660.1133
0121 1418854492 688.0790
0122 1418857421 721.4967
0123 1418860351 759.6125
0124 1418863281 779.4705
0125 1418866210 807.6894
0126 1418869140 839.8069
0127 1418872070 871.7330
0128 1418875000 906.7568
0129 1418877929 943.3170
0130 1418880859 983.9020
0131 1418883789 1014.3950
0132 1418886718 1055.3857
0133 1418889648 1102.0651
0134 1418892578 1142.6149
0135 1418895507 1185.8625
0136 1418898437 1228.2700
0137 1418901367 1273.2164
0138 1418904296 1319.0933
0139 1418907226 1373.8123
0140 1418910156 1425.7070
0141 1418913085 1473.3632
0142 1418916015 1528.8690
0143 1418918945 1583.2742
0144 1418921875 1637.7163
0145 1418924804 1695.3613
0146 1418927734 1757.1055
0147 1418930664 1826.0726
0148 1418933593 1885.9520
0149 1418936523 1943.7694
0150 1418939453 2011.9670
0151 1418942382 2085.3875
0152 1418945312 2166.2559
0153 1418948242 2229.9375
0154 1418951171 2300.1846
0155 1418954101 2379.3816
0156 1418957031 2462.0679
0157 1418959960 2520.2615
0158 1418962890 2607.7207
0159 1418965820 2694.9792
0160 1418968750 2779.2979
0161 1418971679 2862.9907
0162 1418974609 2958.9382
0163 1418977539 3057.5989
0164 1418980468 3152.7688
0165 1418983398 3234.0413
0166 1418986328 3302.5757
0167 1418989257 3398.3337
0168 1418992187 3529.5056
0169 1418995117 3625.5522
0170 1418998046 3736.6223
0171 1419000976 3853.9302
0172 1419003906 3937.7124
0173 1419006835 4038.8447
0174 1419009765 4164.6826
0175 1419012695 4273.0283
0176 1419015625 4405.9712
0177 1419018554 4530.6021
0178 1419021484 4649.7056
0179 1419024414 4746.8076
0180 1419027343 4883.6089
0181 1419030273 5012.0347
0182 1419033203 5119.7344
0183 1419036132 5236.6650
0184 1419039062 5376.9717
0185 1419041992 5477.7710
0186 1419044921 5644.7930
0187 1419047851 5788.6851
0188 1419050781 5906.2407
0189 1419053710 6042.1807
0190 1419056640 6185.1475
0191 1419059570 6341.2192
0192 1419062500 6468.7681
0193 1419065429 6637.8887
0194 1419068359 6762.3750
0195 1419071289 6871.1685
0196 1419074218 7057.9434
0197 1419077148 7181.3496
0198 1419080078 7341.1543
0199 1419083007 7489.1509
0200 1419085937 7662.4492
0201 1419088867 7822.4868
0202 1419091796 7960.6016
0203 1419094726 8115.0278
0204 1419097656 8319.1016
0205 1419100585 8419.3955
0206 1419103515 8603.6592
0207 1419106445 8756.1045
0208 1419109375 8850.3223
0209 1419112304 9016.0342
0210 1419115234 9219.9736
0211 1419118164 9334.9609
0212 1419121093 9517.5293
0213 1419124023 9670.4756
0214 1419126953 9841.6211
0215 1419129882 9990.1895
0216 1419132812 10152.5996
0217 1419135742 10333.2998
0218 1419138671 10504.4893
0219 1419141601 10602.2217
0220 1419144531 10750.7773
0221 1419147460 10929.3809
0222 1419150390 11108.5586
0223 1419153320 11225.1504
0224 1419156250 11426.1660
0225 1419159179 11576.4746
0226 1419162109 11729.1650
0227 1419165039 11861.9951
0228 1419167968 12055.8975
0229 1419170898 12245.0840
0230 1419173828 12360.7783
0231 1419176757 12525.9482
0232 1419179687 12636.1113
0233 1419182617 12733.8262
0234 1419185546 12844.1943
0235 1419188476 13112.6924
0236 1419191406 13274.7324
0237 1419194335 13353.1387
0238 1419197265 13510.0879
0239 1419200195 13637.4893
0240 1419203125 13745.1143
0241 1419206054 13919.5078
0242 1419208984 13981.3262
0243 1419211914 14201.1719
0244 1419214843 14303.4844
0245 1419217773 14446.8174
0246 1419220703 14603.1768
0247 1419223632 14727.3203
0248 1419226562 14823.8506
0249 1419229492 14915.4824
0250 1419232421 15033.5098
0251 1419235351 15174.9766
0252 1419238281 15262.3496
0253 1419241210 15406.9766
0254 1419244140 15529.9346
0255 1419247070 15631.8154
0256 1419250000 15749.4229
0257 1419252929 15841.7295
0258 1419255859 16006.6455
0259 1419258789 16016.9131
0260 1419261718 16081.4531
0261 1419264648 16256.4619
0262 1419267578 16364.7012
0263 1419270507 16502.8242
0264 1419273437 16537.2363
0265 1419276367 16588.6777
0266 1419279296 16751.5039
0267 1419282226 16813.0176
0268 1419285156 16924.7832
0269 1419288085 17003.9766
0270 1419291015 17074.0117
0271 1419293945 17211.1699
0272 1419296875 17241.8730
0273 1419299804 17243.0566
0274 1419302734 17438.3730
0275 1419305664 17464.6621
0276 1419308593 17574.0781
0277 1419311523 17660.0352
0278 1419314453 17726.9414
0279 1419317382 17787.5273
0280 1419320312 17777.7910
0281 1419323242 17968.0801
0282 1419326171 17977.1543
0283 1419329101 18042.1289
0284 1419332031 18102.9941
0285 1419334960 18157.6562
0286 1419337890 18186.5508
0287 1419340820 18200.1641
0288 1419343750 18307.5996
0289 1419346679 18367.5879
0290 1419349609 18543.8516
0291 1419352539 18428.9395
0292 1419355468 18524.6777
0293 1419358398 18616.6152
0294 1419361328 18600.4707
0295 1419364257 18653.4199
0296 1419367187 18734.1992
0297 1419370117 18632.9473
0298 1419373046 18730.7090
0299 1419375976 18748.3574
0300 1419378906 18793.0742
0301 1419381835 18899.8887
0302 1419384765 18871.2129
0303 1419387695 18956.9512
0304 1419390625 18902.8359
0305 1419393554 18936.2812
0306 1419396484 19079.0332
0307 1419399414 19046.3008
0308 1419402343 19185.3457
0309 1419405273 19177.0195
0310 1419408203 19112.4336
0311 1419411132 19107.5742
0312 1419414062 19245.9590
0313 1419416992 19105.8730
0314 1419419921 19217.0371
0315 1419422851 19149.2930
0316 1419425781 19142.5020
0317 1419428710 19267.7285
0318 1419431640 19160.1016
0319 1419434570 19321.5605
0320 1419437500 19316.9043
0321 1419440429 19298.6875
0322 1419443359 19320.7480
0323 1419446289 19322.8730
0324 1419449218 19421.6797
0325 1419452148 19512.4668
0326 1419455078 19411.5469
0327 1419458007 19303.0371
0328 1419460937 19362.2734
0329 1419463867 19416.1465
0330 1419466796 19379.8281
0331 1419469726 19389.3574
0332 1419472656 19435.5977
0333 1419475585 19433.5820
0334 1419478515 19523.6543
0335 1419481445 19371.4004
0336 1419484375 19422.1445
0337 1419487304 19395.8711
0338 1419490234 19448.1523
0339 1419493164 19398.5996
0340 1419496093 19540.8379
0341 1419499023 19453.1816
0342 1419501953 19446.8828
0343 1419504882 19475.3789
0344 1419507812 19404.1133
0345 1419510742 19490.5469
0346 1419513671 19494.4609
0347 1419516601 19369.0547
0348 1419519531 19395.1777
0349 1419522460 19479.2676
0350 1419525390 19510.9062
0351 1419528320 19355.0781
0352 1419531250 19373.6055
0353 1419534179 19441.2637
0354 1419537109 19370.9375
0355 1419540039 19387.9766
0356 1419542968 19346.0859
0357 1419545898 19405.8789
0358 1419548828 19391.8516
0359 1419551757 19401.7871
0360 1419554687 19344.8438
0361 1419557617 19340.3574
0362 1419560546 19374.3047
0363 1419563476 19351.6699
0364 1419566406 19399.7285
0365 1419569335 19335.2773
0366 1419572265 19408.7578
0367 1419575195 19392.4961
0368 1419578125 19422.4375
0369 1419581054 19323.6094
0370 1419583984 19328.8770
0371 1419586914 19354.2520
0372 1419589843 19228.4824
0373 1419592773 19266.5234
0374 1419595703 19361.0137
0375 1419598632 19321.1934
0376 1419601562 19296.9941
0377 1419604492 19248.4102
0378 1419607421 19293.0859
0379 1419610351 19192.1465
0380 1419613281 19248.2656
0381 1419616210 19258.9258
0382 1419619140 19259.7285
0383 1419622070 19309.9512
0384 1419625000 19243.0527
0385 1419627929 19310.0195
0386 1419630859 19227.1699
0387 1419633789 19152.0664
0388 1419636718 19076.5488
0389 1419639648 19129.8770
0390 1419642578 19287.7246
0391 1419645507 19166.5137
0392 1419648437 19152.2031
0393 1419651367 19251.7734
0394 1419654296 19148.1797
0395 1419657226 19158.4258
0396 1419660156 19203.6309
0397 1419663085 19185.4609
0398 1419666015 19178.0820
0399 1419668945 19130.4492
0400 1419671875 19068.1504
0401 1419674804 19138.7188
0402 1419677734 19067.3867
0403 1419680664 19020.8730
0404 1419683593 19053.4688
0405 1419686523 19016.6680
0406 1419689453 19147.6973
0407 1419692382 19055.5898
0408 1419695312 18936.2793
0409 1419698242 19002.0723
0410 1419701171 19058.1621
0411 1419704101 19055.4844
0412 1419707031 19055.7227
0413 1419709960 19029.5781
0414 1419712890 18950.1387
0415 1419715820 19089.8418
0416 1419718750 19002.4258
0417 1419721679 19014.1133
0418 1419724609 19079.4160
0419 1419727539 19003.9121
0420 1419730468 18922.1777
0421 1419733398 19056.8613
0422 1419736328 18970.8281
0423 1419739257 18979.0762
0424 1419742187 18993.4961
0425 1419745117 18932.1387
0426 1419748046 18920.9648
0427 1419750976 18916.3242
0428 1419753906 18876.4258
0429 1419756835 18868.6250
0430 1419759765 18836.5234
0431 1419762695 18885.0645
0432 1419765625 18884.3086
0433 1419768554 18860.0195
0434 1419771484 18877.5820
0435 1419774414 18861.9434
0436 1419777343 18896.5586
0437 1419780273 18716.9395
0438 1419783203 18911.9180
0439 1419786132 18851.2637
0440 1419789062 18877.1387
0441 1419791992 18877.7832
0442 1419794921 18929.2168
0443 1419797851 18844.4453
0444 1419800781 18815.2734
0445 1419803710 18881.0938
0446 1419806640 18866.0215
0447 1419809570 18858.0820
0448 1419812500 18793.4551
0449 1419815429 18884.9551
0450 1419818359 18831.3008
0451 1419821289 18852.0645
0452 1419824218 18802.6836
0453 1419827148 18865.3262
0454 1419830078 18891.0000
0455 1419833007 18884.9238
0456 1419835937 18775.2441
0457 1419838867 18835.7773
0458 1419841796 18794.4121
0459 1419844726 18763.7988
0460 1419847656 18732.4355
0461 1419850585 18801.5723
0462 1419853515 18879.2852
0463 1419856445 18775.9512
0464 1419859375 18781.2891
0465 1419862304 18888.2422
0466 1419865234 18730.2207
0467 1419868164 18824.1973
0468 1419871093 18761.7070
0469 1419874023 18744.5957
0470 1419876953 18749.2734
0471 1419879882 18810.3711
0472 1419882812 18779.7754
0473 1419885742 18799.7871
0474 1419888671 18677.3516
0475 1419891601 18784.1289
0476 1419894531 18726.7090
0477 1419897460 18826.1992
0478 1419900390 18759.6562
0479 1419903320 18645.1191
0480 1419906250 18770.5488
0481 1419909179 18793.3574
0482 1419912109 18753.5508
0483 1419915039 18667.9824
0484 1419917968 18751.3691
0485 1419920898 18724.3965
0486 1419923828 18724.9121
0487 1419926757 18780.8887
0488 1419929687 18747.9980
0489 1419932617 18750.9863
0490 1419935546 18713.3789
0491 1419938476 18836.9238
0492 1419941406 18709.0352
0493 1419944335 18643.5352
0494 1419947265 18735.0039
0495 1419950195 18720.9414
0496 1419953125 18727.6582
0497 1419956054 18759.6738
0498 1419958984 18835.9746
0499 1419961914 18784.5898
0500 1419964843 18852.1973
0501 1419967773 18736.1602
0502 1419970703 18751.9727
0503 1419973632 18768.7012
0504 1419976562 18709.1230
0505 1419979492 18748.2539
0506 1419982421 18795.5371
0507 1419985351 18772.5293
0508 1419988281 18754.6875
0509 1419991210 18869.5918
0510 1419994140 18798.8301
0511 1419997070 18841.5469
0512 1420000000 18795.5527
0513 1420002929 18823.7832
0514 1420005859 18797.7305
0515 1420008789 18809.8418
0516 1420011718 18777.3379
0517 1420014648 18804.0703
0518 1420017578 18829.7148
0519 1420020507 18748.3477
0520 1420023437 18784.1875
0521 1420026367 18775.1250
0522 1420029296 18799.4102
0523 1420032226 18775.3691
0524 1420035156 18750.0410
0525 1420038085 18761.0918
0526 1420041015 18776.1582
0527 1420043945 18797.4785
0528 1420046875 18698.5762
0529 1420049804 18771.4766
0530 1420052734 18765.4746
0531 1420055664 18901.6641
0532 1420058593 18809.8184
0533 1420061523 18829.2305
0534 1420064453 18840.4336
0535 1420067382 18900.6016
0536 1420070312 18825.7852
0537 1420073242 18793.4355
0538 1420076171 18862.3125
0539 1420079101 18830.3574
0540 1420082031 18806.0742
0541 1420084960 18823.6035
0542 1420087890 18906.4727
0543 1420090820 18836.5156
0544 1420093750 18832.8750
0545 1420096679 18913.1328
0546 1420099609 18856.6465
0547 1420102539 18849.3613
0548 1420105468 18940.0586
0549 1420108398 18895.7617
0550 1420111328 18862.3125
0551 1420114257 18884.7617
0552 1420117187 18822.5039
0553 1420120117 18915.1660
0554 1420123046 18934.8184
0555 1420125976 18987.1113
0556 1420128906 18869.1953
0557 1420131835 18876.0078
0558 1420134765 18930.4551
0559 1420137695 18894.2539
0560 1420140625 18994.6602
0561 1420143554 18913.5273
0562 1420146484 18920.4551
0563 1420149414 18954.2715
0564 1420152343 18905.1797
0565 1420155273 18994.9473
0566 1420158203 19050.3984
0567 1420161132 19001.7188
0568 1420164062 19128.5664
0569 1420166992 19023.4883
0570 1420169921 19070.6406
0571 1420172851 19078.2129
0572 1420175781 19022.1523
0573 1420178710 19093.6094
0574 1420181640 19057.1680
0575 1420184570 19074.8418
0576 1420187500 18978.2441
0577 1420190429 19042.5918
0578 1420193359 19032.7012
0579 1420196289 19060.6152
0580 1420199218 19083.5898
0581 1420202148 19072.0781
0582 1420205078 19003.6875
0583 1420208007 19167.7637
0584 1420210937 19078.7812
0585 1420213867 19062.8496
0586 1420216796 19215.3105
0587 1420219726 19023.6172
0588 1420222656 19069.2832
0589 1420225585 19255.5371
0590 1420228515 19105.3691
0591 1420231445 19211.3496
0592 1420234375 19241.5664
0593 1420237304 19232.5137
0594 1420240234 19214.5605
0595 1420243164 19251.1289
0596 1420246093 19229.8047
0597 1420249023 19228.3965
0598 1420251953 19366.6445
0599 1420254882 19322.3535
0600 1420257812 19290.5996
0601 1420260742 19252.9453
0602 1420263671 19396.3574
0603 1420266601 19415.5312
0604 1420269531 19495.0527
0605 1420272460 19445.0449
0606 1420275390 19496.5469
0607 1420278320 19532.7656
0608 1420281250 19631.7070
0609 1420284179 19608.5371
0610 1420287109 19601.4883
0611 1420290039 19771.2363
0612 1420292968 19859.9023
0613 1420295898 19835.2148
0614 1420298828 19902.3086
0615 1420301757 19952.9824
0616 1420304687 20082.3613
0617 1420307617 20129.2324
0618 1420310546 20216.8652
0619 1420313476 20321.6270
0620 1420316406 20417.7227
0621 1420319335 20561.9590
0622 1420322265 20677.0469
0623 1420325195 20829.3965
0624 1420328125 20994.3848
0625 1420331054 21107.5410
0626 1420333984 21385.3926
0627 1420336914 21448.0625
0628 1420339843 21630.9141
0629 1420342773 21842.9590
0630 1420345703 21972.7930
0631 1420348632 22225.6992
0632 1420351562 22254.3379
0633 1420354492 22398.6719
0634 1420357421 22495.7598
0635 1420360351 22615.9453
0636 1420363281 22746.2031
0637 1420366210 22790.9668
0638 1420369140 22845.8809
0639 1420372070 22922.6602
0640 1420375000 22998.7988
0641 1420377929 22877.3906
0642 1420380859 22758.0293
0643 1420383789 22744.6582
0644 1420386718 22700.3398
0645 1420389648 22662.0078
0646 1420392578 22624.5391
0647 1420395507 22555.8535
0648 1420398437 22377.0273
0649 1420401367 22360.5781
0650 1420404296 22216.2148
0651 1420407226 22296.1523
0652 1420410156 22123.9648
0653 1420413085 22014.0020
0654 1420416015 22015.1602
0655 1420418945 21962.9219
0656 1420421875 21927.2578
0657 1420424804 21795.2227
0658 1420427734 21737.0957
0659 1420430664 21690.2969
0660 1420433593 21526.3379
0661 1420436523 21453.5742
0662 1420439453 21425.1504
0663 1420442382 21384.5879
0664 1420445312 21319.4316
0665 1420448242 21358.5254
0666 1420451171 21301.2715
0667 1420454101 21214.9199
0668 1420457031 21203.1680
0669 1420459960 21166.3867
0670 1420462890 21130.9570
0671 1420465820 21016.4043
0672 1420468750 20974.8613
0673 1420471679 20934.7129
0674 1420474609 20762.7852
0675 1420477539 20814.6953
0676 1420480468 20680.3262
0677 1420483398 20672.2637
0678 1420486328 20678.7305
0679 1420489257 20547.0273
0680 1420492187 20635.5723
0681 1420495117 20599.3184
0682 1420498046 20611.3320
0683 1420500976 20525.0859
0684 1420503906 20510.3223
0685 1420506835 20382.4609
0686 1420509765 20464.9668
0687 1420512695 20300.2148
0688 1420515625 20312.3887
0689 1420518554 20277.7266
0690 1420521484 20213.7812
0691 1420524414 20253.4512
0692 1420527343 20270.8809
0693 1420530273 20214.4648
0694 1420533203 20153.7617
0695 1420536132 20199.6582
0696 1420539062 20195.8457
0697 1420541992 20172.5371
0698 1420544921 20147.8984
0699 1420547851 20088.1699
0700 1420550781 20018.8340
0701 1420553710 20124.6973
0702 1420556640 20187.8848
0703 1420559570 20058.3184
0704 1420562500 20081.2871
0705 1420565429 20085.5605
0706 1420568359 20180.4727
0707 1420571289 20177.2539
0708 1420574218 20098.4883
0709 1420577148 20171.1660
0710 1420580078 20165.0000
0711 1420583007 20111.1562
0712 1420585937 20140.4766
0713 1420588867 20178.5215
0714 1420591796 20151.8984
0715 1420594726 20190.7969
0716 1420597656 20138.0371
0717 1420600585 20211.1719
0718 1420603515 20116.4395
0719 1420606445 20092.1895
0720 1420609375 20136.5117
0721 1420612304 20188.7891
0722 1420615234 20185.5195
0723 1420618164 20171.7324
0724 1420621093 20101.8613
0725 1420624023 20146.4531
0726 1420626953 20082.8262
0727 1420629882 20169.2637
0728 1420632812 20161.6562
0729 1420635742 20109.9922
0730 1420638671 20230.8340
0731 1420641601 20139.1699
0732 1420644531 20116.1641
0733 1420647460 20101.9160
0734 1420650390 20123.3340
0735 1420653320 20039.6836
0736 1420656250 19900.4062
0737 1420659179 19958.6504
0738 1420662109 20022.5527
0739 1420665039 20058.5098
0740 1420667968 20061.3867
0741 1420670898 20090.0469
0742 1420673828 20103.3770
0743 1420676757 20081.2031
0744 1420679687 20031.9082
0745 1420682617 19959.4004
0746 1420685546 19974.0469
0747 1420688476 20108.2812
0748 1420691406 19992.7754
0749 1420694335 20019.6191
0750 1420697265 20037.6621
0751 1420700195 20077.8242
0752 1420703125 19986.9121
0753 1420706054 20109.4102
0754 1420708984 20162.1035
0755 1420711914 20115.1133
0756 1420714843 20070.1445
0757 1420717773 20184.5273
0758 1420720703 20119.3984
0759 1420723632 20107.4258
0760 1420726562 20208.4727
0761 1420729492 20202.9922
0762 1420732421 20237.6016
0763 1420735351 20172.4219
0764 1420738281 20209.7773
0765 1420741210 20164.3770
0766 1420744140 20179.5000
0767 1420747070 20152.2852
0768 1420750000 20131.7109
0769 1420752929 20215.1035
0770 1420755859 20139.2305
0771 1420758789 20139.1250
0772 1420761718 20164.5039
0773 1420764648 20106.1406
0774 1420767578 20129.2695
0775 1420770507 20170.0664
0776 1420773437 20161.3047
0777 1420776367 20135.3945
0778 1420779296 19917.8027
0779 1420782226 20010.7363
0780 1420785156 20088.5723
0781 1420788085 20050.5215
0782 1420791015 20042.4062
0783 1420793945 19984.3086
0784 1420796875 19979.0234
0785 1420799804 19977.7891
0786 1420802734 19900.9492
0787 1420805664 19907.1113
0788 1420808593 19821.6426
0789 1420811523 19919.5605
0790 1420814453 19894.9023
0791 1420817382 19723.9590
0792 1420820312 19911.3516
0793 1420823242 19931.4199
0794 1420826171 19886.1543
0795 1420829101 19868.9434
0796 1420832031 19893.6211
0797 1420834960 19770.5762
0798 1420837890 19701.7324
0799 1420840820 19785.8184
0800 1420843750 19740.6895
0801 1420846679 19775.7051
0802 1420849609 19749.5625
0803 1420852539 19702.4121
0804 1420855468 19717.1445
0805 1420858398 19790.3672
0806 1420861328 19684.1074
0807 1420864257 19725.2676
0808 1420867187 19724.4531
0809 1420870117 19731.0586
0810 1420873046 19710.3145
0811 1420875976 19685.8105
0812 1420878906 19674.9668
0813 1420881835 19635.4219
0814 1420884765 19623.6426
0815 1420887695 19618.1602
0816 1420890625 19594.4961
0817 1420893554 19684.6445
0818 1420896484 19582.9707
0819 1420899414 19546.6426
0820 1420902343 19508.6953
0821 1420905273 19605.3770
0822 1420908203 19544.3809
0823 1420911132 19521.2930
0824 1420914062 19483.4941
0825 1420916992 19545.4473
0826 1420919921 19465.2461
0827 1420922851 19534.8711
0828 1420925781 19579.2246
0829 1420928710 19507.3125
0830 1420931640 19394.1230
0831 1420934570 19447.1953
0832 1420937500 19486.4395
0833 1420940429 19490.1465
0834 1420943359 19432.8145
0835 1420946289 19408.3008
0836 1420949218 19429.3750
0837 1420952148 19402.0391
0838 1420955078 19443.6270
0839 1420958007 19492.5117
0840 1420960937 19443.1211
0841 1420963867 19412.3418
0842 1420966796 19364.2676
0843 1420969726 19471.5410
0844 1420972656 19414.9531
0845 1420975585 19390.2480
0846 1420978515 19362.1875
0847 1420981445 19456.0625
0848 1420984375 19333.0801
0849 1420987304 19297.8438
0850 1420990234 19277.3887
0851 1420993164 19339.2988
0852 1420996093 19373.6855
0853 1420999023 19440.6133
0854 1421001953 19371.0293
0855 1421004882 19310.6309
0856 1421007812 19245.9258
0857 1421010742 19318.6426
0858 1421013671 19317.9375
0859 1421016601 19249.5000
0860 1421019531 19249.8027
0861 1421022460 19297.3242
0862 1421025390 19302.7070
0863 1421028320 19255.8496
0864 1421031250 19293.0293
0865 1421034179 19345.9941
0866 1421037109 19355.1875
0867 1421040039 19306.5742
0868 1421042968 19333.6230
0869 1421045898 19325.8223
0870 1421048828 19253.5527
0871 1421051757 19306.8184
0872 1421054687 19237.5449
0873 1421057617 19344.9336
0874 1421060546 19239.9844
0875 1421063476 19181.0703
0876 1421066406 19237.2754
0877 1421069335 19223.6445
0878 1421072265 19276.8730
0879 1421075195 19336.9785
0880 1421078125 19263.9668
0881 1421081054 19237.2031
0882 1421083984 19209.5391
0883 1421086914 19128.4160
0884 1421089843 19164.4375
0885 1421092773 19255.4629
0886 1421095703 19296.7930
0887 1421098632 19212.9805
0888 1421101562 19188.7070
0889 1421104492 19258.4707
0890 1421107421 19227.4141
0891 1421110351 19264.6465
0892 1421113281 19070.6621
0893 1421116210 19101.2402
0894 1421119140 19109.9707
0895 1421122070 19257.4570
0896 1421125000 19212.0020
0897 1421127929 19191.8652
0898 1421130859 19226.3789
0899 1421133789 19207.2891
0900 1421136718 19131.1406
0901 1421139648 19142.1973
0902 1421142578 19141.2773
0903 1421145507 19238.1484
0904 1421148437 19217.4531
0905 1421151367 19248.7656
0906 1421154296 19240.4922
0907 1421157226 19184.6250
0908 1421160156 19213.8398
0909 1421163085 19191.3789
0910 1421166015 19309.1953
0911 1421168945 19171.9141
0912 1421171875 19121.5020
0913 1421174804 19149.3574
0914 1421177734 19198.9316
0915 1421180664 19095.4531
0916 1421183593 19144.5547
0917 1421186523 19082.1582
0918 1421189453 19049.1465
0919 1421192382 19239.0234
0920 1421195312 19156.8848
0921 1421198242 19244.0586
0922 1421201171 19120.4023
0923 1421204101 19129.5215
0924 1421207031 19094.3711
0925 1421209960 19229.8770
0926 1421212890 19149.8125
0927 1421215820 19091.8809
0928 1421218750 19208.6465
0929 1421221679 19058.5645
0930 1421224609 19161.3262
0931 1421227539 19038.5684
0932 1421230468 19153.0703
0933 1421233398 19109.6328
0934 1421236328 19147.1113
0935 1421239257 19119.4863
0936 1421242187 19136.5898
0937 1421245117 19159.0176
0938 1421248046 19144.0645
0939 1421250976 19090.6465
0940 1421253906 19138.5273
0941 1421256835 19186.3516
0942 1421259765 19153.7578
0943 1421262695 19195.4219
0944 1421265625 19124.6387
0945 1421268554 19095.7129
0946 1421271484 19138.0977
0947 1421274414 19133.3047
0948 1421277343 19121.0156
0949 1421280273 19091.5918
0950 1421283203 19146.2266
0951 1421286132 19180.5059
0952 1421289062 19074.0605
0953 1421291992 19085.9453
0954 1421294921 19118.9199
0955 1421297851 19153.6484
0956 1421300781 19083.1582
0957 1421303710 19205.3789
0958 1421306640 19022.3906
0959 1421309570 19151.7207
0960 1421312500 19122.4805
0961 1421315429 19119.1699
0962 1421318359 19121.9023
0963 1421321289 19054.7129
0964 1421324218 19087.2031
0965 1421327148 19114.8633
0966 1421330078 19106.2070
0967 1421333007 19123.4883
0968 1421335937 19106.1523
0969 1421338867 19045.2559
0970 1421341796 19032.8203
0971 1421344726 19016.2969
0972 1421347656 19106.9375
0973 1421350585 19050.2988
0974 1421353515 19081.4062
0975 1421356445 19086.5195
0976 1421359375 19118.0801
0977 1421362304 19113.4727
0978 1421365234 19168.5469
0979 1421368164 18975.1465
0980 1421371093 18974.7637
0981 1421374023 19011.2617
0982 1421376953 19000.7227
0983 1421379882 19039.7871
0984 1421382812 18996.5312
0985 1421385742 18975.9121
0986 1421388671 19039.8711
0987 1421391601 18993.9004
0988 1421394531 18991.6016
0989 1421397460 19078.5156
0990 1421400390 19020.0508
0991 1421403320 19017.0176
0992 1421406250 19029.6016
0993 1421409179 19036.2285
0994 1421412109 18988.8789
0995 1421415039 19077.7891
0996 1421417968 19072.5156
0997 1421420898 18966.4492
0998 1421423828 18993.7324
0999 1421426757 19075.8926
1000 1421429687 18947.7500
1001 1421432617 19039.3809
1002 1421435546 19054.5195
1003 1421438476 19020.9980
1004 1421441406 18975.2949
1005 1421444335 19160.2090
1006 1421447265 19086.5117
1007 1421450195 19041.9434
1008 1421453125 18957.8750
1009 1421456054 18967.9023
1010 1421458984 19025.2930
1011 1421461914 18977.3145
1012 1421464843 18967.4766
1013 1421467773 18945.2852
1014 1421470703 19039.4043
1015 1421473632 19024.3711
1016 1421476562 19053.7344
1017 1421479492 19013.9824
1018 1421482421 18945.2910
1019 1421485351 19018.7812
1020 1421488281 19005.0176
1021 1421491210 19013.2695
1022 1421494140 18954.4375
1023 1421497070 19039.4863
1024 1421500000 19071.1680
1025 1421502929 19061.3379
1026 1421505859 18917.3926
1027 1421508789 19043.9531
1028 1421511718 18913.2012
1029 1421514648 19006.2500
1030 1421517578 18870.6523
1031 1421520507 19043.4219
1032 1421523437 18985.8750
1033 1421526367 18949.6348
1034 1421529296 18979.2676
1035 1421532226 18923.9043
1036 1421535156 19013.0977
1037 1421538085 18911.3574
1038 1421541015 18945.1406
1039 1421543945 19031.9023
1040 1421546875 18946.2441
1041 1421549804 18919.5391
1042 1421552734 19037.4082
1043 1421555664 19061.8418
1044 1421558593 18967.4082
1045 1421561523 19026.6895
1046 1421564453 19116.9590
1047 1421567382 18931.6445
1048 1421570312 18954.6133
1049 1421573242 18964.6035
1050 1421576171 18905.7676
1051 1421579101 18977.4727
1052 1421582031 18976.1230
1053 1421584960 19017.1094
1054 1421587890 19035.7207
1055 1421590820 18993.2285
1056 1421593750 19010.8125
1057 1421596679 18977.9824
1058 1421599609 19050.3457
1059 1421602539 18959.1953
1060 1421605468 18970.5117
1061 1421608398 19031.6328
1062 1421611328 19039.4844
1063 1421614257 18975.9961
1064 1421617187 19035.7051
1065 1421620117 19012.7441
1066 1421623046 19072.9082
1067 1421625976 18961.6465
1068 1421628906 19057.5391
1069 1421631835 18998.9473
1070 1421634765 18971.0547
1071 1421637695 19003.4180
1072 1421640625 18979.9746
1073 1421643554 19025.5527
1074 1421646484 19013.3613
1075 1421649414 18960.9395
1076 1421652343 18922.0996
1077 1421655273 18979.8105
1078 1421658203 19026.3652
1079 1421661132 19008.7188
1080 1421664062 18980.8672
1081 1421666992 18985.2441
1082 1421669921 19012.1406
1083 1421672851 19020.9941
1084 1421675781 19024.5312
1085 1421678710 19051.7988
1086 1421681640 19067.2949
1087 1421684570 19024.3594
1088 1421687500 18983.3164
1089 1421690429 19056.8164
1090 1421693359 19002.7695
1091 1421696289 19009.7461
1092 1421699218 19026.6621
1093 1421702148 18965.3926
1094 1421705078 19048.7754
1095 1421708007 18966.6230
1096 1421710937 19039.2480
1097 1421713867 18970.8867
1098 1421716796 18958.8066
1099 1421719726 18941.1426
1100 1421722656 19013.2070
1101 1421725585 19056.1992
1102 1421728515 19118.5820
1103 1421731445 19136.3867
1104 1421734375 19031.4414
1105 1421737304 19002.8945
1106 1421740234 19040.8027
1107 1421743164 19113.0332
1108 1421746093 19020.3320
1109 1421749023 18995.0312
1110 1421751953 18995.9453
1111 1421754882 19019.5781
1112 1421757812 19013.3848
1113 1421760742 19021.0234
1114 1421763671 19020.4531
1115 1421766601 19032.3281
1116 1421769531 18994.0781
1117 1421772460 19055.7637
1118 1421775390 19012.3418
1119 1421778320 19024.1738
1120 1421781250 19002.2754
1121 1421784179 18998.5176
1122 1421787109 19019.2930
1123 1421790039 19096.4180
1124 1421792968 18980.0586
1125 1421795898 18874.6016
1126 1421798828 19038.0156
1127 1421801757 19017.6309
1128 1421804687 19032.1406
1129 1421807617 19008.8887
1130 1421810546 19010.1230
1131 1421813476 18970.5273
1132 1421816406 19022.7441
1133 1421819335 19003.2441
1134 1421822265 18991.9004
1135 1421825195 19120.6484
1136 1421828125 19114.6250
1137 1421831054 19118.1660
1138 1421833984 19065.0957
1139 1421836914 19100.7188
1140 1421839843 19131.4746
1141 1421842773 19051.7949
1142 1421845703 19039.1582
1143 1421848632 19063.4434
1144 1421851562 19024.7188
1145 1421854492 19004.8203
1146 1421857421 19063.0293
1147 1421860351 19127.7773
1148 1421863281 19069.1680
1149 1421866210 19026.5137
1150 1421869140 19020.6621
1151 1421872070 19044.9219
1152 1421875000 19115.7188
1153 1421877929 19059.8574
1154 1421880859 19055.6680
1155 1421883789 19049.3320
1156 1421886718 19027.2988
1157 1421889648 19085.6484
1158 1421892578 19092.1445
1159 1421895507 19032.9570
1160 1421898437 19072.7871
1161 1421901367 19054.6270
1162 1421904296 18943.7832
1163 1421907226 19030.6816
1164 1421910156 19047.0801
1165 1421913085 19122.2891
1166 1421916015 19016.6152
1167 1421918945 18933.8672
1168 1421921875 19047.4668
1169 1421924804 19056.1328
1170 1421927734 18953.4395
1171 1421930664 19029.4199
1172 1421933593 19005.9902
1173 1421936523 18942.4922
1174 1421939453 19072.8301
1175 1421942382 18997.1348
1176 1421945312 19048.2324
1177 1421948242 19066.2383
1178 1421951171 19029.4727
1179 1421954101 18976.0078
1180 1421957031 19004.7207
1181 1421959960 19036.6406
1182 1421962890 19057.0098
1183 1421965820 19046.1250
1184 1421968750 19036.4414
1185 1421971679 19049.5898
1186 1421974609 19013.3613
1187 1421977539 19104.8008
1188 1421980468 18959.1934
1189 1421983398 19033.1934
1190 1421986328 19059.3984
1191 1421989257 18977.3027
1192 1421992187 18991.0000
1193 1421995117 19052.4941
1194 1421998046 18974.3457
1195 1422000976 19026.0840
1196 1422003906 19023.2363
1197 1422006835 19079.2598
1198 1422009765 18980.2168
1199 1422012695 18945.5625
1200 1422015625 19018.0039
1201 1422018554 18924.5820
1202 1422021484 18953.9707
1203 1422024414 19005.8398
1204 1422027343 18998.1328
1205 1422030273 18988.2168
1206 1422033203 18976.2539
1207 1422036132 19006.5859
1208 1422039062 19111.9160
1209 1422041992 19051.1777
1210 1422044921 18978.6836
1211 1422047851 18975.3848
1212 1422050781 18954.4863
1213 1422053710 19008.1719
1214 1422056640 18983.8945
1215 1422059570 19097.3496
1216 1422062500 19076.5332
1217 1422065429 19036.9141
1218 1422068359 18984.2090
1219 1422071289 18970.4844
1220 1422074218 19001.9707
1221 1422077148 19061.0469
1222 1422080078 18980.1895
1223 1422083007 18993.0840
1224 1422085937 19007.2891
1225 1422088867 19094.2461
1226 1422091796 19021.7500
1227 1422094726 18977.7988
1228 1422097656 19046.6484
1229 1422100585 19060.9863
1230 1422103515 19053.6523
1231 1422106445 18954.5840
1232 1422109375 19048.4297
1233 1422112304 19115.1250
1234 1422115234 19099.0801
1235 1422118164 19043.8945
1236 1422121093 18978.0352
1237 1422124023 19011.5566
1238 1422126953 19022.6699
1239 1422129882 19003.7422
1240 1422132812 19033.3594
1241 1422135742 19063.5059
1242 1422138671 19041.3613
1243 1422141601 19024.7090
1244 1422144531 19010.4980
1245 1422147460 19071.4785
1246 1422150390 19045.0332
1247 1422153320 18998.2852
1248 1422156250 19069.5723
1249 1422159179 19078.2930
1250 1422162109 19072.9668
1251 1422165039 19104.1387
1252 1422167968 19089.3496
1253 1422170898 18924.1875
1254 1422173828 19031.2676
1255 1422176757 19039.1641
1256 1422179687 18987.7832
1257 1422182617 19052.6230
1258 1422185546 19081.9395
1259 1422188476 19045.8496
1260 1422191406 18998.8984
1261 1422194335 19050.2559
1262 1422197265 19179.4180
1263 1422200195 19064.1797
1264 1422203125 19059.1660
1265 1422206054 19149.0312
1266 1422208984 19109.4629
1267 1422211914 19073.9922
1268 1422214843 19057.0195
1269 1422217773 19130.8926
1270 1422220703 19125.7305
1271 1422223632 19094.5859
1272 1422226562 19140.8301
1273 1422229492 19068.0215
1274 1422232421 19091.0547
1275 1422235351 19112.2188
1276 1422238281 19058.2012
1277 1422241210 18957.2734
1278 1422244140 19068.4824
1279 1422247070 19078.2363
1280 1422250000 19144.4355
1281 1422252929 19129.3691
1282 1422255859 19238.1836
1283 1422258789 19154.3945
1284 1422261718 19146.5605
1285 1422264648 19119.4746
1286 1422267578 19151.5898
1287 1422270507 19079.5273
1288 1422273437 19039.3613
1289 1422276367 19131.0000
1290 1422279296 19161.2422
1291 1422282226 19056.9902
1292 1422285156 19080.7773
1293 1422288085 19093.3633
1294 1422291015 19031.8848
1295 1422293945 19092.3223
1296 1422296875 19154.0410
1297 1422299804 19114.9199
1298 1422302734 19101.4746
1299 1422305664 19118.2012
1300 1422308593 19092.6465
1301 1422311523 19135.4824
1302 1422314453 19136.9531
1303 1422317382 19079.9531
1304 1422320312 19144.5488
1305 1422323242 19085.8574
1306 1422326171 19124.1836
1307 1422329101 19188.8301
1308 1422332031 19104.4922
1309 1422334960 19173.7051
1310 1422337890 19114.0254
1311 1422340820 19054.4668
1312 1422343750 19067.2188
1313 1422346679 19183.1562
1314 1422349609 19144.9258
1315 1422352539 19151.4648
1316 1422355468 19095.8828
1317 1422358398 19208.4531
1318 1422361328 19116.9219
1319 1422364257 19183.9824
1320 1422367187 19233.3164
1321 1422370117 19216.1016
1322 1422373046 19139.3359
1323 1422375976 19051.3867
1324 1422378906 19117.6367
1325 1422381835 19105.5039
1326 1422384765 19126.1914
1327 1422387695 19124.0078
1328 1422390625 19185.4648
1329 1422393554 19179.6113
1330 1422396484 19292.3750
1331 1422399414 19151.6582
1332 1422402343 19127.9453
1333 1422405273 19170.0723
1334 1422408203 19176.0039
1335 1422411132 19299.2246
1336 1422414062 19220.9121
1337 1422416992 19187.3984
1338 1422419921 19245.3125
1339 1422422851 19233.6309
1340 1422425781 19193.9004
1341 1422428710 19236.8496
1342 1422431640 19148.3477
1343 1422434570 19216.2578
1344 1422437500 19293.3574
1345 1422440429 19249.5410
1346 1422443359 19254.7383
1347 1422446289 19228.0703
1348 1422449218 19239.9824
1349 1422452148 19284.4629
1350 1422455078 19183.1328
1351 1422458007 19196.3242
1352 1422460937 19192.8789
1353 1422463867 19274.5156
1354 1422466796 19285.7812
1355 1422469726 19313.7090
1356 1422472656 19359.9473
1357 1422475585 19315.0352
1358 1422478515 19283.9805
1359 1422481445 19312.8926
1360 1422484375 19285.7441
1361 1422487304 19358.9199
1362 1422490234 19301.3750
1363 1422493164 19258.1914
1364 1422496093 19309.4746
1365 1422499023 19327.8965
1366 1422501953 19310.1289
1367 1422504882 19322.6250
1368 1422507812 19312.5703
1369 1422510742 19327.4707
1370 1422513671 19200.0117
1371 1422516601 19208.7402
1372 1422519531 19261.4648
1373 1422522460 19392.9941
1374 1422525390 19265.9902
1375 1422528320 19261.1367
1376 1422531250 19333.6680
1377 1422534179 19289.2930
1378 1422537109 19171.3965
1379 1422540039 19295.8301
1380 1422542968 19321.1289
1381 1422545898 19300.3926
1382 1422548828 19360.7363
1383 1422551757 19432.6934
1384 1422554687 19366.0215
1385 1422557617 19339.8008
1386 1422560546 19352.2695
1387 1422563476 19377.8359
1388 1422566406 19356.5918
1389 1422569335 19367.5137
1390 1422572265 19328.8809
1391 1422575195 19416.2246
1392 1422578125 19375.7871
1393 1422581054 19434.0547
1394 1422583984 19388.9023
1395 1422586914 19404.5723
1396 1422589843 19391.6094
1397 1422592773 19423.3828
1398 1422595703 19321.5918
1399 1422598632 19417.2402
1400 1422601562 19338.4512
1401 1422604492 19384.7129
1402 1422607421 19449.3535
1403 1422610351 19402.9980
1404 1422613281 19498.3984
1405 1422616210 19398.5938
1406 1422619140 19457.9980
1407 1422622070 19371.9492
1408 1422625000 19368.4004
1409 1422627929 19371.6484
1410 1422630859 19435.8613
1411 1422633789 19415.5293
1412 1422636718 19365.1621
1413 1422639648 19387.2910
1414 1422642578 19306.7734
1415 1422645507 19422.1289
1416 1422648437 19409.2891
1417 1422651367 19365.4883
1418 1422654296 19388.9004
1419 1422657226 19372.2539
1420 1422660156 19435.4648
1421 1422663085 19452.9473
1422 1422666015 19509.5215
1423 1422668945 19365.1309
1424 1422671875 19522.9902
1425 1422674804 19408.9102
1426 1422677734 19475.8242
1427 1422680664 19402.4258
1428 1422683593 19403.5898
1429 1422686523 19315.5293
1430 1422689453 19324.4043
1431 1422692382 19358.3516
1432 1422695312 19478.1973
1433 1422698242 19419.8945
1434 1422701171 19459.9277
1435 1422704101 19446.2617
1436 1422707031 19537.5918
1437 1422709960 19416.6074
1438 1422712890 19410.5176
1439 1422715820 19402.3496
1440 1422718750 19428.3867
1441 1422721679 19385.3926
1442 1422724609 19388.2461
1443 1422727539 19475.1680
1444 1422730468 19432.6934
1445 1422733398 19502.8848
1446 1422736328 19412.0117
1447 1422739257 19497.7090
1448 1422742187 19534.8887
1449 1422745117 19434.2656
1450 1422748046 19492.1016
1451 1422750976 19513.8281
1452 1422753906 19484.9180
1453 1422756835 19520.4980
1454 1422759765 19558.5996
1455 1422762695 19540.4297
1456 1422765625 19522.5723
1457 1422768554 19537.1465
1458 1422771484 19411.8262
1459 1422774414 19370.5820
1460 1422777343 19578.2539
1461 1422780273 19483.8340
1462 1422783203 19465.5898
1463 1422786132 19482.2969
1464 1422789062 19393.4297
1465 1422791992 19502.8984
1466 1422794921 19591.5918
1467 1422797851 19554.6758
1468 1422800781 19548.3066
1469 1422803710 19518.9082
1470 1422806640 19541.2695
1471 1422809570 19540.6699
1472 1422812500 19515.2090
1473 1422815429 19505.3945
1474 1422818359 19496.7695
1475 1422821289 19618.0410
1476 1422824218 19603.6387
1477 1422827148 19601.1797
1478 1422830078 19499.4199
1479 1422833007 19483.3145
1480 1422835937 19477.3789
1481 1422838867 19437.2168
1482 1422841796 19587.3301
1483 1422844726 19587.8730
1484 1422847656 19501.8184
1485 1422850585 19558.4316
1486 1422853515 19541.5410
1487 1422856445 19504.7891
1488 1422859375 19524.9980
1489 1422862304 19505.4766
1490 1422865234 19517.5488
1491 1422868164 19549.9492
1492 1422871093 19494.2402
1493 1422874023 19534.4941
1494 1422876953 19511.2480
1495 1422879882 19543.3789
1496 1422882812 19495.1543
1497 1422885742 19517.2754
1498 1422888671 19623.7246
1499 1422891601 19535.7773
1500 1422894531 19535.8203
1501 1422897460 19577.5098
1502 1422900390 19555.8301
1503 1422903320 19456.3105
1504 1422906250 19481.7500
1505 1422909179 19552.0723
1506 1422912109 19518.2285
1507 1422915039 19564.0547
1508 1422917968 19526.1250
1509 1422920898 19626.5332
1510 1422923828 19540.4668
1511 1422926757 19603.7598
1512 1422929687 19510.9434
1513 1422932617 19575.4258
1514 1422935546 19486.2500
1515 1422938476 19482.3457
1516 1422941406 19607.6309
1517 1422944335 19511.3027
1518 1422947265 19594.0859
1519 1422950195 19521.0176
1520 1422953125 19505.6016
1521 1422956054 19550.6777
1522 1422958984 19631.9609
1523 1422961914 19545.6797
1524 1422964843 19533.5586
1525 1422967773 19510.9531
1526 1422970703 19586.1309
1527 1422973632 19674.1973
1528 1422976562 19672.3145
1529 1422979492 19580.1191
1530 1422982421 19627.9160
1531 1422985351 19558.8066
1532 1422988281 19627.5820
1533 1422991210 19597.1484
1534 1422994140 19493.3145
1535 1422997070 19556.9219
1536 1423000000 19614.1426
1537 1423002929 19597.2109
1538 1423005859 19568.6348
1539 1423008789 19656.7324
1540 1423011718 19632.5098
1541 1423014648 19566.9023
1542 1423017578 19556.8887
1543 1423020507 19556.6855
1544 1423023437 19669.3691
1545 1423026367 19615.6895
1546 1423029296 19656.9707
1547 1423032226 19652.6621
1548 1423035156 19538.5586
1549 1423038085 19624.2949
1550 1423041015 19622.5234
1551 1423043945 19559.2363
1552 1423046875 19610.1660
1553 1423049804 19721.7988
1554 1423052734 19658.9043
1555 1423055664 19706.5449
1556 1423058593 19625.4043
1557 1423061523 19642.5840
1558 1423064453 19670.4844
1559 1423067382 19583.0391
1560 1423070312 19566.0938
1561 1423073242 19658.9219
1562 1423076171 19612.0039
1563 1423079101 19568.0469
1564 1423082031 19636.3965
1565 1423084960 19627.8359
1566 1423087890 19706.2441
1567 1423090820 19642.7578
1568 1423093750 19644.8301
1569 1423096679 19719.0488
1570 1423099609 19766.8496
1571 1423102539 19607.0566
1572 1423105468 19622.5000
1573 1423108398 19642.3828
1574 1423111328 19607.8320
1575 1423114257 19594.9375
1576 1423117187 19618.9395
1577 1423120117 19623.6152
1578 1423123046 19665.6562
1579 1423125976 19669.3691
1580 1423128906 19716.0488
1581 1423131835 19702.6699
1582 1423134765 19759.5645
1583 1423137695 19720.5801
1584 1423140625 19819.3086
1585 1423143554 19792.3242
1586 1423146484 19659.7422
1587 1423149414 19661.8340
1588 1423152343 19719.4961
1589 1423155273 19648.0957
1590 1423158203 19754.0488
1591 1423161132 19650.3926
1592 1423164062 19776.1152
1593 1423166992 19720.4844
1594 1423169921 19676.3027
1595 1423172851 19758.2012
1596 1423175781 19762.4434
1597 1423178710 19778.7461
1598 1423181640 19745.0293
1599 1423184570 19791.1016
1600 1423187500 19792.0371
1601 1423190429 19776.8281
1602 1423193359 19834.5215
1603 1423196289 19727.8770
1604 1423199218 19751.0625
1605 1423202148 19744.3242
1606 1423205078 19770.0820
1607 1423208007 19816.0879
1608 1423210937 19804.2266
1609 1423213867 19707.3398
1610 1423216796 19717.9727
1611 1423219726 19776.1406
1612 1423222656 19797.9648
1613 1423225585 19793.6309
1614 1423228515 19789.4648
1615 1423231445 19919.0820
1616 1423234375 19794.0742
1617 1423237304 19796.1465
1618 1423240234 19776.0137
1619 1423243164 19882.1055
1620 1423246093 19869.0859
1621 1423249023 19798.6738
1622 1423251953 19879.4492
1623 1423254882 19757.9492
1624 1423257812 19863.9062
1625 1423260742 19788.4863
1626 1423263671 19867.7988
1627 1423266601 19905.9512
1628 1423269531 19901.1309
1629 1423272460 19831.8262
1630 1423275390 19815.3477
1631 1423278320 19889.2129
1632 1423281250 19961.8984
1633 1423284179 19878.4102
1634 1423287109 19885.1582
1635 1423290039 19896.3281
1636 1423292968 19940.4434
1637 1423295898 19965.0645
1638 1423298828 19906.0039
1639 1423301757 19935.2988
1640 1423304687 19947.6660
1641 1423307617 20031.5918
1642 1423310546 19874.2441
1643 1423313476 19898.0918
1644 1423316406 19911.6250
1645 1423319335 19993.3105
1646 1423322265 19954.2148
1647 1423325195 19910.7598
1648 1423328125 19965.9688
1649 1423331054 19961.4766
1650 1423333984 20010.3066
1651 1423336914 20090.6113
1652 1423339843 20012.6484
1653 1423342773 19998.2676
1654 1423345703 20017.6680
1655 1423348632 19982.6680
1656 1423351562 20093.9746
1657 1423354492 20143.9258
1658 1423357421 20056.4941
1659 1423360351 20067.9336
1660 1423363281 20014.1602
1661 1423366210 20108.0332
1662 1423369140 20199.6426
1663 1423372070 20149.6934
1664 1423375000 20205.3359
1665 1423377929 20138.7539
1666 1423380859 20132.7539
1667 1423383789 20136.4375
1668 1423386718 20154.5703
1669 1423389648 20238.2949
1670 1423392578 20149.8926
1671 1423395507 20227.0781
1672 1423398437 20260.6270
1673 1423401367 20237.8145
1674 1423404296 20288.3887
1675 1423407226 20314.3145
1676 1423410156 20290.2188
1677 1423413085 20275.2109
1678 1423416015 20248.6621
1679 1423418945 20215.4043
1680 1423421875 20301.7109
1681 1423424804 20279.5195
1682 1423427734 20334.2832
1683 1423430664 20370.0898
1684 1423433593 20416.1152
1685 1423436523 20381.5391
1686 1423439453 20473.1504
1687 1423442382 20553.2207
1688 1423445312 20464.2891
1689 1423448242 20399.5020
1690 1423451171 20430.1836
1691 1423454101 20495.4277
1692 1423457031 20639.1777
1693 1423459960 20685.2812
1694 1423462890 20525.4121
1695 1423465820 20688.9453
1696 1423468750 20631.5684
1697 1423471679 20546.5234
1698 1423474609 20647.8320
1699 1423477539 20650.4336
1700 1423480468 20628.5977
1701 1423483398 20694.2656
1702 1423486328 20711.6484
1703 1423489257 20735.3281
1704 1423492187 20767.2168
1705 1423495117 20815.1797
1706 1423498046 20770.0703
1707 1423500976 20929.6582
1708 1423503906 20899.6836
1709 1423506835 20920.3535
1710 1423509765 20873.0000
1711 1423512695 20898.5156
1712 1423515625 20984.5156
1713 1423518554 21060.8887
1714 1423521484 21165.1133
1715 1423524414 21136.7773
1716 1423527343 21135.6035
1717 1423530273 21057.7812
1718 1423533203 21235.3242
1719 1423536132 21268.8086
1720 1423539062 21264.0918
1721 1423541992 21227.6953
1722 1423544921 21435.5332
1723 1423547851 21465.3965
1724 1423550781 21401.9531
1725 1423553710 21526.6855
1726 1423556640 21543.7441
1727 1423559570 21449.5098
1728 1423562500 21545.3770
1729 1423565429 21546.1992
1730 1423568359 21528.8750
1731 1423571289 21610.9492
1732 1423574218 21598.2266
1733 1423577148 21695.7578
1734 1423580078 21719.2168
1735 1423583007 21756.2715
1736 1423585937 21868.3359
1737 1423588867 21856.2539
1738 1423591796 21873.4961
1739 1423594726 21958.3984
1740 1423597656 21992.9492
1741 1423600585 22064.7559
1742 1423603515 22155.0234
1743 1423606445 22108.0898
1744 1423609375 22178.7773
1745 1423612304 22308.3633
1746 1423615234 22304.2598
1747 1423618164 22275.9492
1748 1423621093 22554.6973
1749 1423624023 22473.0801
1750 1423626953 22482.2754
1751 1423629882 22559.6133
1752 1423632812 22641.1816
1753 1423635742 22755.1309
1754 1423638671 22871.6230
1755 1423641601 23311.4316
1756 1423644531 23283.2344
1757 1423647460 23047.9180
1758 1423650390 23088.6680
1759 1423653320 23217.0078
1760 1423656250 23220.9453
1761 1423659179 23300.9434
1762 1423662109 23287.9023
1763 1423665039 23449.0859
1764 1423667968 23397.8789
1765 1423670898 23587.6289
1766 1423673828 23742.3379
1767 1423676757 23851.7363
1768 1423679687 24037.5117
1769 1423682617 23917.8262
1770 1423685546 24029.6016
1771 1423688476 24069.3301
1772 1423691406 24298.0957
1773 1423694335 24324.7754
1774 1423697265 24319.1602
1775 1423700195 24457.6562
1776 1423703125 24508.1152
1777 1423706054 24730.6699
1778 1423708984 24774.8262
1779 1423711914 24902.6074
1780 1423714843 24973.5273
1781 1423717773 25082.2090
1782 1423720703 25402.0176
1783 1423723632 25581.9395
1784 1423726562 25653.2930
1785 1423729492 33393.6172
1786 1423732421 40657.5742
1787 1423735351 30356.3477
1788 1423738281 26371.8418
1789 1423741210 26317.1504
1790 1423744140 26332.4082
1791 1423747070 26650.6445
1792 1423750000 26436.1855
1793 1423752929 26703.8457
1794 1423755859 26928.1152
1795 1423758789 26955.7539
1796 1423761718 27084.0996
1797 1423764648 27232.1758
1798 1423767578 27154.1348
1799 1423770507 27300.9258
1800 1423773437 27528.4316
1801 1423776367 27796.4297
1802 1423779296 27767.6777
1803 1423782226 27818.5664
1804 1423785156 28126.7109
1805 1423788085 28264.4004
1806 1423791015 28478.0410
1807 1423793945 28494.4414
1808 1423796875 28704.9199
1809 1423799804 28824.8652
1810 1423802734 29157.5488
1811 1423805664 29196.0352
1812 1423808593 29361.1465
1813 1423811523 29626.4141
1814 1423814453 29932.2285
1815 1423817382 30265.1699
1816 1423820312 30755.9316
1817 1423823242 30226.2539
1818 1423826171 30394.1543
1819 1423829101 30582.3926
1820 1423832031 30793.1680
1821 1423834960 30785.6523
1822 1423837890 31055.4375
1823 1423840820 31063.2637
1824 1423843750 31186.4121
1825 1423846679 31292.2695
1826 1423849609 31455.9316
1827 1423852539 31351.6719
1828 1423855468 31511.3398
1829 1423858398 31689.5723
1830 1423861328 31764.4648
1831 1423864257 31719.2559
1832 1423867187 31696.3008
1833 1423870117 31573.6172
1834 1423873046 31877.0254
1835 1423875976 31773.1641
1836 1423878906 31630.6777
1837 1423881835 31669.1270
1838 1423884765 31627.1172
1839 1423887695 31354.5547
1840 1423890625 31225.4434
1841 1423893554 31146.7676
1842 1423896484 30945.9453
1843 1423899414 30744.9160
1844 1423902343 30456.5117
1845 1423905273 30278.3418
1846 1423908203 30053.7383
1847 1423911132 29597.3027
1848 1423914062 29442.3125
1849 1423916992 28955.8125
1850 1423919921 28356.6934
1851 1423922851 27918.5859
1852 1423925781 27276.8438
1853 1423928710 26802.0859
1854 1423931640 26280.9805
1855 1423934570 25771.1094
1856 1423937500 24989.7266
1857 1423940429 24493.2500
1858 1423943359 23690.8398
1859 1423946289 23171.3711
1860 1423949218 22527.0098
1861 1423952148 21711.4844
1862 1423955078 21084.0176
1863 1423958007 20381.0156
1864 1423960937 19561.7773
1865 1423963867 18781.6074
1866 1423966796 18066.0391
1867 1423969726 17407.5332
1868 1423972656 16691.0664
1869 1423975585 15951.4092
1870 1423978515 15187.2930
1871 1423981445 14516.6533
1872 1423984375 13836.1074
1873 1423987304 13198.3291
1874 1423990234 12569.9150
1875 1423993164 11973.6279
1876 1423996093 11305.8203
1877 1423999023 10690.0977
1878 1424001953 10179.3877
1879 1424004882 9648.2246
1880 1424007812 9095.0645
1881 1424010742 8573.0947
1882 1424013671 8068.6963
1883 1424016601 7594.6646
1884 1424019531 7150.0454
1885 1424022460 6738.2358
1886 1424025390 6341.4971
1887 1424028320 5943.2402
1888 1424031250 5552.7202
1889 1424034179 5196.7222
1890 1424037109 4867.3672
1891 1424040039 4582.8472
1892 1424042968 4273.8550
1893 1424045898 3990.4641
1894 1424048828 3747.9995
1895 1424051757 3488.7314
1896 1424054687 3260.4592
1897 1424057617 3033.7671
1898 1424060546 2825.9976
1899 1424063476 2642.5632
1900 1424066406 2453.6965
1901 1424069335 2275.8818
1902 1424072265 2119.0688
1903 1424075195 1969.3064
1904 1424078125 1824.5684
1905 1424081054 1687.1155
1906 1424083984 1554.5032
1907 1424086914 1446.1003
1908 1424089843 1340.4025
1909 1424092773 1235.6017
1910 1424095703 1142.6359
1911 1424098632 1058.2543
1912 1424101562 976.7191
1913 1424104492 900.4427
1914 1424107421 828.9031
1915 1424110351 760.1253
1916 1424113281 698.7662
1917 1424116210 644.1977
1918 1424119140 587.7456
1919 1424122070 542.0096
1920 1424125000 498.8835
1921 1424127929 451.5616
1922 1424130859 420.7869
1923 1424133789 384.6676
1924 1424136718 347.8212
1925 1424139648 326.8654
1926 1424142578 288.6636
1927 1424145507 259.4817
1928 1424148437 235.6117
1929 1424151367 214.1675
1930 1424154296 193.6360
1931 1424157226 174.7783
1932 1424160156 164.4397
1933 1424163085 160.1128
1934 1424166015 147.0425
1935 1424168945 134.5675
1936 1424171875 115.6615
1937 1424174804 96.3173
1938 1424177734 84.9565
1939 1424180664 76.3688
1940 1424183593 68.2189
1941 1424186523 61.3683
1942 1424189453 54.9337
1943 1424192382 49.1082
1944 1424195312 45.0744
1945 1424198242 40.4563
1946 1424201171 36.6612
1947 1424204101 34.4185
1948 1424207031 30.5828
1949 1424209960 28.5357
1950 1424212890 27.6327
1951 1424215820 24.5129
1952 1424218750 24.3799
1953 1424221679 25.4341
1954 1424224609 37.3259
1955 1424227539 134.5307
1956 1424230468 59.5215
1957 1424233398 21.1287
1958 1424236328 20.3375
1959 1424239257 18.3632
1960 1424242187 18.9679
1961 1424245117 18.7613
1962 1424248046 18.4467
1963 1424250976 19.0339
1964 1424253906 19.0718
1965 1424256835 19.1466
1966 1424259765 19.6482
1967 1424262695 19.8930
1968 1424265625 20.3079
1969 1424268554 20.7812
1970 1424271484 21.1169
1971 1424274414 21.6165
1972 1424277343 22.0272
1973 1424280273 23.1814
1974 1424283203 26.5287
1975 1424286132 23.6629
1976 1424289062 23.3536
1977 1424291992 23.7221
1978 1424294921 24.0600
1979 1424297851 24.4294
1980 1424300781 24.4459
1981 1424303710 24.9909
1982 1424306640 27.6236
1983 1424309570 26.6576
1984 1424312500 43.2762
1985 1424315429 175.9907
1986 1424318359 96.3871
1987 1424321289 50.2933
1988 1424324218 85.0971
1989 1424327148 33.4636
1990 1424330078 31.2485
1991 1424333007 33.8430
1992 1424335937 25.0554
1993 1424338867 26.7053
1994 1424341796 26.0159
1995 1424344726 23.0277
1996 1424347656 23.6488
1997 1424350585 22.4916
1998 1424353515 21.4881
1999 1424356445 21.3872
2000 1424359375 20.7679
2001 1424362304 20.2936
2002 1424365234 19.7630
2003 1424368164 19.3225
2004 1424371093 18.9196
2005 1424374023 18.3564
2006 1424376953 17.7707
2007 1424379882 17.2959
2008 1424382812 16.8568
2009 1424385742 16.4239
2010 1424388671 16.0013
2011 1424391601 15.5487
2012 1424394531 16.0841
2013 1424397460 16.0922
2014 1424400390 16.8857
2015 1424403320 45.1160
2016 1424406250 35.1206
2017 1424409179 79.3538
2018 1424412109 246.5605
2019 1424415039 55.6502
2020 1424417968 17.6986
2021 1424420898 21.9479
2022 1424423828 13.4511
2023 1424426757 11.6872
2024 1424429687 11.7488
2025 1424432617 10.7480
2026 1424435546 10.9429
2027 1424438476 9.8737
2028 1424441406 11.1968
2029 1424444335 13.1454
2030 1424447265 9.3232
2031 1424450195 15.2215
2032 1424453125 15.6994
2033 1424456054 9.1823
2034 1424458984 23.5037
2035 1424461914 14.9255
2036 1424464843 11.3125
2037 1424467773 31.7234
2038 1424470703 12.1417
2039 1424473632 16.4304
2040 1424476562 30.2427
2041 1424479492 8.8460
2042 1424482421 18.7609
2043 1424485351 18.5906
2044 1424488281 6.7882
2045 1424491210 12.0744
2046 1424494140 10.0386
2047 1424497070 10.3976
