# File: 20-05-29T170801.ast
# NOTEA     = None Attached.  RTLSDR Dongle Test
# NOTEB     = Spectral Integration
# OBSERVER  = Science Aficionado
# DEVICE    = rtl=0,bias=1
# DATADIR   = ../data/
# SITE      = Small Metal Horn - NeSDR Test
# CITY      = Green Bank
# REGION    = West Virginia
# COUNTRY   = US
# TELTYPE   = Bubble Wrap  Horn
# FRAME     = TOPO
# GAIN1     = 40.0
# GAIN2     = 11.0
# GAIN3     = 11.0
# GAIN4     = 0.0
# Count     = 2500
# CenterFreq= 1420000000.0
# Bandwidth = 3000000.0
# Duration  = 21.846544
# DeltaX    = 5859.375
# TSYS      = 200.0
# TRX       = 100.0
# TRMS      = 2.0
# TINT      = 1.0
# KPERC     = 100.0
# GAINFACT  = 1.0
# BUNIT     = Counts
# NCHAN     = 1024
# NSPEC     = 1
# NTIME     = 0
# NSAMPLES  = 0
# EPEAK     = 4.10875183718
# ERMS      = 0.995973393526
# EMJD      = 58568.808999981004 
# REFCHAN   = 512.0
# REFSAMPL  = 256.0
# NAVE      = 50
# NMEDIAN   = 1024
# Fft_rate  = 5000
# UTC       = 2020-05-29 17:08:01.035862
# SECONDS   =       0.0000000000 
# LST       = 04:19:23.280
# AZ        = 180.0
# EL        = 90.0
# TELLON    = -79:50:22.920
# TELLAT    = +38:25:59.160
# RA        = 04:16:41.900
# DEC       = +38:20:13.900
# GALLON    = 161:13:13.30
# GALLAT    = -08:49:44.50
# ALT_SUN   = +73:13:32.8
# AZ_SUN    = +172:51:18.3
# ETAA      = 0.8
# ETAB      = 0.99
# POLANGLE  = 0.0
# TELSIZEAM = 1.0
# TELSIZEBM = 1.0
# AST_VERS  = 05.01
0000 1418501464 15.1358
0001 1418504394 15.1691
0002 1418507324 15.1318
0003 1418510253 14.8943
0004 1418513183 14.8262
0005 1418516113 14.9652
0006 1418519042 14.8974
0007 1418521972 14.8655
0008 1418524902 15.1898
0009 1418527832 14.9921
0010 1418530761 15.2179
0011 1418533691 15.2380
0012 1418536621 15.3962
0013 1418539550 15.3938
0014 1418542480 15.4083
0015 1418545410 15.2555
0016 1418548339 15.4431
0017 1418551269 15.7065
0018 1418554199 15.5591
0019 1418557128 15.8493
0020 1418560058 16.0530
0021 1418562988 16.1549
0022 1418565917 16.1876
0023 1418568847 16.6239
0024 1418571777 16.4888
0025 1418574707 16.7784
0026 1418577636 16.7666
0027 1418580566 17.1547
0028 1418583496 17.2249
0029 1418586425 17.5358
0030 1418589355 17.7780
0031 1418592285 17.9679
0032 1418595214 18.5021
0033 1418598144 18.3405
0034 1418601074 18.6172
0035 1418604003 18.7515
0036 1418606933 19.0869
0037 1418609863 19.3572
0038 1418612792 19.9647
0039 1418615722 19.6726
0040 1418618652 19.8795
0041 1418621582 20.2854
0042 1418624511 20.4453
0043 1418627441 20.8256
0044 1418630371 21.3068
0045 1418633300 21.6608
0046 1418636230 22.0254
0047 1418639160 22.2571
0048 1418642089 22.7985
0049 1418645019 22.8918
0050 1418647949 23.0747
0051 1418650878 23.7349
0052 1418653808 23.8377
0053 1418656738 24.1703
0054 1418659667 24.7082
0055 1418662597 25.3217
0056 1418665527 25.1874
0057 1418668457 25.7342
0058 1418671386 25.8012
0059 1418674316 26.7830
0060 1418677246 27.3863
0061 1418680175 27.4531
0062 1418683105 27.8471
0063 1418686035 28.3141
0064 1418688964 28.6397
0065 1418691894 28.8373
0066 1418694824 29.4177
0067 1418697753 29.9945
0068 1418700683 30.1522
0069 1418703613 30.8150
0070 1418706542 31.6736
0071 1418709472 31.9040
0072 1418712402 32.3624
0073 1418715332 33.0459
0074 1418718261 33.0428
0075 1418721191 34.0592
0076 1418724121 34.3642
0077 1418727050 34.8435
0078 1418729980 35.0558
0079 1418732910 35.6480
0080 1418735839 36.1486
0081 1418738769 36.9004
0082 1418741699 37.1218
0083 1418744628 37.7442
0084 1418747558 38.3917
0085 1418750488 38.6201
0086 1418753417 38.8755
0087 1418756347 39.3523
0088 1418759277 40.2667
0089 1418762207 40.3491
0090 1418765136 40.9978
0091 1418768066 41.9117
0092 1418770996 42.4198
0093 1418773925 43.0394
0094 1418776855 42.9112
0095 1418779785 43.6055
0096 1418782714 43.8711
0097 1418785644 45.1993
0098 1418788574 45.7973
0099 1418791503 46.3316
0100 1418794433 46.2822
0101 1418797363 46.7657
0102 1418800292 47.3777
0103 1418803222 48.2517
0104 1418806152 48.7430
0105 1418809082 49.6519
0106 1418812011 50.0874
0107 1418814941 50.9328
0108 1418817871 51.3645
0109 1418820800 52.0632
0110 1418823730 51.8104
0111 1418826660 52.3048
0112 1418829589 54.2011
0113 1418832519 53.4225
0114 1418835449 55.1919
0115 1418838378 55.1779
0116 1418841308 55.3947
0117 1418844238 55.6328
0118 1418847167 56.6001
0119 1418850097 58.1717
0120 1418853027 58.8918
0121 1418855957 58.6510
0122 1418858886 58.4487
0123 1418861816 59.2911
0124 1418864746 60.5489
0125 1418867675 61.0390
0126 1418870605 61.9904
0127 1418873535 62.1726
0128 1418876464 62.7727
0129 1418879394 62.9336
0130 1418882324 64.3652
0131 1418885253 64.6384
0132 1418888183 63.9023
0133 1418891113 65.3601
0134 1418894042 65.9200
0135 1418896972 66.7505
0136 1418899902 66.8226
0137 1418902832 68.2337
0138 1418905761 69.0681
0139 1418908691 68.7528
0140 1418911621 69.5820
0141 1418914550 70.3773
0142 1418917480 70.9553
0143 1418920410 71.7141
0144 1418923339 71.0186
0145 1418926269 72.3753
0146 1418929199 71.5206
0147 1418932128 72.6794
0148 1418935058 74.1795
0149 1418937988 75.1808
0150 1418940917 74.9365
0151 1418943847 75.1184
0152 1418946777 75.6878
0153 1418949707 77.0185
0154 1418952636 77.3215
0155 1418955566 77.8418
0156 1418958496 77.4250
0157 1418961425 78.9638
0158 1418964355 79.3095
0159 1418967285 79.1941
0160 1418970214 79.8718
0161 1418973144 79.8453
0162 1418976074 81.5184
0163 1418979003 80.4191
0164 1418981933 81.1416
0165 1418984863 81.6994
0166 1418987792 82.5432
0167 1418990722 83.3582
0168 1418993652 83.9611
0169 1418996582 83.6852
0170 1418999511 84.2674
0171 1419002441 84.6913
0172 1419005371 85.3135
0173 1419008300 85.2424
0174 1419011230 85.3730
0175 1419014160 86.6176
0176 1419017089 85.7910
0177 1419020019 87.1704
0178 1419022949 86.8862
0179 1419025878 88.6987
0180 1419028808 88.9438
0181 1419031738 88.4009
0182 1419034667 89.1503
0183 1419037597 89.1784
0184 1419040527 90.6653
0185 1419043457 89.6869
0186 1419046386 89.7859
0187 1419049316 91.0959
0188 1419052246 91.1300
0189 1419055175 92.8211
0190 1419058105 93.1418
0191 1419061035 92.2403
0192 1419063964 93.4661
0193 1419066894 93.6265
0194 1419069824 94.0580
0195 1419072753 94.1810
0196 1419075683 93.5583
0197 1419078613 96.7426
0198 1419081542 94.9849
0199 1419084472 94.4812
0200 1419087402 95.5784
0201 1419090332 95.4795
0202 1419093261 95.8937
0203 1419096191 96.5378
0204 1419099121 95.4337
0205 1419102050 97.2309
0206 1419104980 96.2705
0207 1419107910 97.9306
0208 1419110839 97.7029
0209 1419113769 97.0175
0210 1419116699 97.9484
0211 1419119628 99.0749
0212 1419122558 98.7701
0213 1419125488 98.2257
0214 1419128417 99.1894
0215 1419131347 98.2472
0216 1419134277 98.8067
0217 1419137207 99.1037
0218 1419140136 98.6216
0219 1419143066 99.8144
0220 1419145996 99.2903
0221 1419148925 102.5335
0222 1419151855 100.7190
0223 1419154785 101.8862
0224 1419157714 101.3756
0225 1419160644 101.4819
0226 1419163574 103.0588
0227 1419166503 102.8796
0228 1419169433 101.9214
0229 1419172363 102.8996
0230 1419175292 102.3322
0231 1419178222 102.6603
0232 1419181152 102.2048
0233 1419184082 104.1318
0234 1419187011 102.8312
0235 1419189941 103.2117
0236 1419192871 103.1027
0237 1419195800 101.7317
0238 1419198730 103.7743
0239 1419201660 103.1113
0240 1419204589 103.0070
0241 1419207519 104.4989
0242 1419210449 103.0123
0243 1419213378 103.4457
0244 1419216308 103.4318
0245 1419219238 104.3337
0246 1419222167 103.8479
0247 1419225097 105.5735
0248 1419228027 103.8236
0249 1419230957 103.4888
0250 1419233886 103.0803
0251 1419236816 103.8188
0252 1419239746 104.3245
0253 1419242675 105.2034
0254 1419245605 105.4901
0255 1419248535 105.3200
0256 1419251464 103.5106
0257 1419254394 105.6066
0258 1419257324 107.2047
0259 1419260253 106.5315
0260 1419263183 105.1723
0261 1419266113 106.6403
0262 1419269042 104.5389
0263 1419271972 105.2150
0264 1419274902 105.7557
0265 1419277832 105.8642
0266 1419280761 106.5466
0267 1419283691 106.2910
0268 1419286621 106.9080
0269 1419289550 106.5678
0270 1419292480 107.8106
0271 1419295410 106.2808
0272 1419298339 106.4819
0273 1419301269 106.3673
0274 1419304199 105.8967
0275 1419307128 106.0694
0276 1419310058 106.4549
0277 1419312988 107.0907
0278 1419315917 106.5526
0279 1419318847 107.9212
0280 1419321777 108.7094
0281 1419324707 107.6526
0282 1419327636 107.0158
0283 1419330566 107.2362
0284 1419333496 108.0483
0285 1419336425 108.5685
0286 1419339355 106.6799
0287 1419342285 107.9719
0288 1419345214 106.8506
0289 1419348144 107.1571
0290 1419351074 107.3789
0291 1419354003 107.6106
0292 1419356933 108.2115
0293 1419359863 108.8986
0294 1419362792 109.2774
0295 1419365722 108.3623
0296 1419368652 108.8753
0297 1419371582 107.2428
0298 1419374511 107.8827
0299 1419377441 108.1758
0300 1419380371 108.1329
0301 1419383300 108.3917
0302 1419386230 108.3215
0303 1419389160 108.5399
0304 1419392089 108.8055
0305 1419395019 108.8922
0306 1419397949 108.3758
0307 1419400878 109.4508
0308 1419403808 109.7870
0309 1419406738 109.5414
0310 1419409667 109.9986
0311 1419412597 110.3623
0312 1419415527 109.2397
0313 1419418457 109.3304
0314 1419421386 109.2503
0315 1419424316 109.5770
0316 1419427246 109.4588
0317 1419430175 109.0623
0318 1419433105 110.2612
0319 1419436035 110.2494
0320 1419438964 110.0279
0321 1419441894 111.2537
0322 1419444824 112.5479
0323 1419447753 111.6107
0324 1419450683 111.0449
0325 1419453613 110.7402
0326 1419456542 109.5862
0327 1419459472 112.0619
0328 1419462402 111.2479
0329 1419465332 110.7697
0330 1419468261 111.2984
0331 1419471191 112.2587
0332 1419474121 112.1734
0333 1419477050 111.5140
0334 1419479980 112.6061
0335 1419482910 111.1264
0336 1419485839 112.6345
0337 1419488769 113.2015
0338 1419491699 113.1204
0339 1419494628 111.0630
0340 1419497558 112.2825
0341 1419500488 114.6027
0342 1419503417 113.2471
0343 1419506347 113.9527
0344 1419509277 112.3868
0345 1419512207 113.3266
0346 1419515136 115.0074
0347 1419518066 114.6496
0348 1419520996 115.0393
0349 1419523925 115.5025
0350 1419526855 115.0800
0351 1419529785 113.5333
0352 1419532714 115.3824
0353 1419535644 114.6933
0354 1419538574 113.6336
0355 1419541503 114.6649
0356 1419544433 115.4513
0357 1419547363 114.9768
0358 1419550292 117.0101
0359 1419553222 115.7656
0360 1419556152 115.0070
0361 1419559082 117.1770
0362 1419562011 116.9415
0363 1419564941 116.9367
0364 1419567871 117.4211
0365 1419570800 116.6753
0366 1419573730 117.6862
0367 1419576660 117.2853
0368 1419579589 117.8443
0369 1419582519 118.4089
0370 1419585449 117.2767
0371 1419588378 117.2554
0372 1419591308 117.8068
0373 1419594238 119.5256
0374 1419597167 118.3056
0375 1419600097 120.3880
0376 1419603027 121.2846
0377 1419605957 119.4087
0378 1419608886 118.7410
0379 1419611816 121.1431
0380 1419614746 120.3750
0381 1419617675 122.7230
0382 1419620605 121.1656
0383 1419623535 119.8026
0384 1419626464 120.6461
0385 1419629394 121.6338
0386 1419632324 124.3527
0387 1419635253 123.3249
0388 1419638183 122.0940
0389 1419641113 122.6089
0390 1419644042 124.5625
0391 1419646972 124.1866
0392 1419649902 122.8952
0393 1419652832 125.8044
0394 1419655761 127.3179
0395 1419658691 127.2666
0396 1419661621 125.0320
0397 1419664550 124.5118
0398 1419667480 124.4995
0399 1419670410 124.4623
0400 1419673339 124.9171
0401 1419676269 126.8587
0402 1419679199 126.6200
0403 1419682128 127.4567
0404 1419685058 125.8123
0405 1419687988 127.2593
0406 1419690917 127.7623
0407 1419693847 127.8077
0408 1419696777 126.7746
0409 1419699707 128.7702
0410 1419702636 129.8061
0411 1419705566 128.2241
0412 1419708496 127.8821
0413 1419711425 128.4854
0414 1419714355 128.5840
0415 1419717285 130.7962
0416 1419720214 130.4460
0417 1419723144 131.7222
0418 1419726074 130.9558
0419 1419729003 131.2209
0420 1419731933 131.4016
0421 1419734863 130.6711
0422 1419737792 129.7270
0423 1419740722 134.0493
0424 1419743652 130.9297
0425 1419746582 130.3392
0426 1419749511 133.7761
0427 1419752441 134.1266
0428 1419755371 132.6815
0429 1419758300 132.5904
0430 1419761230 133.6564
0431 1419764160 133.9756
0432 1419767089 133.6734
0433 1419770019 134.1175
0434 1419772949 135.9773
0435 1419775878 134.5927
0436 1419778808 135.6387
0437 1419781738 134.9053
0438 1419784667 135.5841
0439 1419787597 134.5513
0440 1419790527 135.9521
0441 1419793457 136.6905
0442 1419796386 136.9154
0443 1419799316 136.5146
0444 1419802246 138.8604
0445 1419805175 138.6758
0446 1419808105 136.6692
0447 1419811035 138.1012
0448 1419813964 137.5692
0449 1419816894 137.9223
0450 1419819824 137.7613
0451 1419822753 138.5647
0452 1419825683 138.2593
0453 1419828613 140.1589
0454 1419831542 139.8620
0455 1419834472 139.8546
0456 1419837402 141.1984
0457 1419840332 142.5657
0458 1419843261 140.4198
0459 1419846191 140.8447
0460 1419849121 138.5756
0461 1419852050 140.3364
0462 1419854980 142.5972
0463 1419857910 141.7998
0464 1419860839 143.6341
0465 1419863769 142.1629
0466 1419866699 145.2032
0467 1419869628 143.4187
0468 1419872558 142.5771
0469 1419875488 143.6770
0470 1419878417 145.0327
0471 1419881347 145.9120
0472 1419884277 144.7628
0473 1419887207 144.5178
0474 1419890136 145.9501
0475 1419893066 146.0205
0476 1419895996 146.7854
0477 1419898925 146.4328
0478 1419901855 147.2115
0479 1419904785 145.2648
0480 1419907714 147.1632
0481 1419910644 147.2447
0482 1419913574 147.1805
0483 1419916503 147.2135
0484 1419919433 147.1843
0485 1419922363 148.4493
0486 1419925292 146.6066
0487 1419928222 146.1785
0488 1419931152 148.3486
0489 1419934082 148.6846
0490 1419937011 148.7171
0491 1419939941 148.1701
0492 1419942871 148.6939
0493 1419945800 150.0456
0494 1419948730 149.8958
0495 1419951660 148.0171
0496 1419954589 151.3758
0497 1419957519 149.8895
0498 1419960449 149.7412
0499 1419963378 151.9647
0500 1419966308 152.2731
0501 1419969238 152.9536
0502 1419972167 150.4510
0503 1419975097 153.0119
0504 1419978027 151.9153
0505 1419980957 153.7644
0506 1419983886 155.2317
0507 1419986816 155.5996
0508 1419989746 157.9069
0509 1419992675 161.1197
0510 1419995605 170.9757
0511 1419998535 193.5029
0512 1420001464 242.1053
0513 1420004394 192.3509
0514 1420007324 167.5461
0515 1420010253 161.7215
0516 1420013183 157.6918
0517 1420016113 157.5777
0518 1420019042 155.6685
0519 1420021972 154.3076
0520 1420024902 154.5134
0521 1420027832 153.3477
0522 1420030761 154.8878
0523 1420033691 153.3414
0524 1420036621 153.9954
0525 1420039550 154.0181
0526 1420042480 151.6194
0527 1420045410 154.6664
0528 1420048339 151.5578
0529 1420051269 151.7638
0530 1420054199 153.4689
0531 1420057128 149.6167
0532 1420060058 150.1951
0533 1420062988 151.0129
0534 1420065917 151.5518
0535 1420068847 150.8925
0536 1420071777 149.8806
0537 1420074707 152.2553
0538 1420077636 151.8734
0539 1420080566 148.9221
0540 1420083496 149.8231
0541 1420086425 150.0689
0542 1420089355 149.8346
0543 1420092285 150.4487
0544 1420095214 150.0591
0545 1420098144 150.8142
0546 1420101074 149.4138
0547 1420104003 149.1861
0548 1420106933 148.2375
0549 1420109863 148.5210
0550 1420112792 147.8227
0551 1420115722 147.5872
0552 1420118652 147.7973
0553 1420121582 147.3663
0554 1420124511 146.9031
0555 1420127441 145.7111
0556 1420130371 147.1125
0557 1420133300 147.6080
0558 1420136230 147.9250
0559 1420139160 147.7412
0560 1420142089 147.8247
0561 1420145019 148.6143
0562 1420147949 146.1530
0563 1420150878 146.5776
0564 1420153808 148.2674
0565 1420156738 145.8278
0566 1420159667 147.1262
0567 1420162597 147.1443
0568 1420165527 147.5103
0569 1420168457 147.5350
0570 1420171386 147.2461
0571 1420174316 145.6175
0572 1420177246 147.7211
0573 1420180175 147.7335
0574 1420183105 147.2183
0575 1420186035 145.6622
0576 1420188964 146.5794
0577 1420191894 146.2775
0578 1420194824 147.6110
0579 1420197753 146.9432
0580 1420200683 146.2367
0581 1420203613 147.0026
0582 1420206542 148.0090
0583 1420209472 145.6107
0584 1420212402 148.4749
0585 1420215332 145.5570
0586 1420218261 146.2548
0587 1420221191 146.4937
0588 1420224121 147.2843
0589 1420227050 147.9943
0590 1420229980 146.9543
0591 1420232910 146.2852
0592 1420235839 146.5594
0593 1420238769 146.2220
0594 1420241699 146.9496
0595 1420244628 148.9278
0596 1420247558 149.4643
0597 1420250488 148.4882
0598 1420253417 148.7098
0599 1420256347 147.7696
0600 1420259277 147.7307
0601 1420262207 149.3292
0602 1420265136 148.9778
0603 1420268066 149.9095
0604 1420270996 149.7928
0605 1420273925 149.3050
0606 1420276855 149.7726
0607 1420279785 151.6506
0608 1420282714 149.5998
0609 1420285644 149.7497
0610 1420288574 152.0445
0611 1420291503 150.0716
0612 1420294433 153.8294
0613 1420297363 150.8961
0614 1420300292 150.3465
0615 1420303222 151.8965
0616 1420306152 150.5660
0617 1420309082 150.8709
0618 1420312011 152.6496
0619 1420314941 152.1265
0620 1420317871 150.8654
0621 1420320800 151.4406
0622 1420323730 151.9225
0623 1420326660 153.4126
0624 1420329589 150.5790
0625 1420332519 149.5401
0626 1420335449 150.3032
0627 1420338378 149.9457
0628 1420341308 150.2196
0629 1420344238 150.0476
0630 1420347167 149.7897
0631 1420350097 150.9888
0632 1420353027 149.2467
0633 1420355957 151.5041
0634 1420358886 149.0676
0635 1420361816 148.1682
0636 1420364746 149.3708
0637 1420367675 146.7436
0638 1420370605 148.7658
0639 1420373535 147.4543
0640 1420376464 149.1047
0641 1420379394 144.7748
0642 1420382324 147.2717
0643 1420385253 145.6188
0644 1420388183 146.0367
0645 1420391113 147.8521
0646 1420394042 147.2348
0647 1420396972 145.7601
0648 1420399902 144.9571
0649 1420402832 146.4711
0650 1420405761 145.5825
0651 1420408691 145.7011
0652 1420411621 145.8257
0653 1420414550 143.8515
0654 1420417480 142.6068
0655 1420420410 142.5933
0656 1420423339 142.8365
0657 1420426269 142.5666
0658 1420429199 142.2089
0659 1420432128 142.2412
0660 1420435058 142.3368
0661 1420437988 141.3996
0662 1420440917 139.6040
0663 1420443847 138.4102
0664 1420446777 137.6838
0665 1420449707 141.1006
0666 1420452636 140.5302
0667 1420455566 138.5311
0668 1420458496 138.3290
0669 1420461425 137.6144
0670 1420464355 136.6979
0671 1420467285 136.8931
0672 1420470214 137.8075
0673 1420473144 136.7460
0674 1420476074 138.9391
0675 1420479003 136.8263
0676 1420481933 135.1697
0677 1420484863 136.5720
0678 1420487792 135.0546
0679 1420490722 133.8137
0680 1420493652 133.2940
0681 1420496582 135.4268
0682 1420499511 135.4028
0683 1420502441 131.4615
0684 1420505371 131.1683
0685 1420508300 133.9162
0686 1420511230 132.2249
0687 1420514160 132.5416
0688 1420517089 132.1443
0689 1420520019 132.5497
0690 1420522949 131.9964
0691 1420525878 129.3052
0692 1420528808 130.9189
0693 1420531738 129.6212
0694 1420534667 132.1581
0695 1420537597 129.4624
0696 1420540527 127.6634
0697 1420543457 129.7484
0698 1420546386 128.3193
0699 1420549316 129.7992
0700 1420552246 128.1369
0701 1420555175 128.8630
0702 1420558105 129.4638
0703 1420561035 129.0673
0704 1420563964 130.5881
0705 1420566894 128.3011
0706 1420569824 128.5086
0707 1420572753 127.1627
0708 1420575683 127.7587
0709 1420578613 129.5281
0710 1420581542 129.5434
0711 1420584472 127.4209
0712 1420587402 126.9523
0713 1420590332 124.9536
0714 1420593261 126.8764
0715 1420596191 126.9439
0716 1420599121 127.1185
0717 1420602050 126.7440
0718 1420604980 125.9795
0719 1420607910 126.0315
0720 1420610839 125.8689
0721 1420613769 125.1883
0722 1420616699 126.0127
0723 1420619628 125.6941
0724 1420622558 125.9477
0725 1420625488 126.1071
0726 1420628417 125.0051
0727 1420631347 126.3023
0728 1420634277 124.7194
0729 1420637207 124.0839
0730 1420640136 123.9141
0731 1420643066 123.4878
0732 1420645996 123.6168
0733 1420648925 123.9605
0734 1420651855 124.5913
0735 1420654785 125.9384
0736 1420657714 125.0102
0737 1420660644 124.4635
0738 1420663574 123.5361
0739 1420666503 123.2899
0740 1420669433 124.6823
0741 1420672363 122.5945
0742 1420675292 124.5146
0743 1420678222 123.1035
0744 1420681152 124.4169
0745 1420684082 124.3166
0746 1420687011 125.3685
0747 1420689941 123.3794
0748 1420692871 122.6374
0749 1420695800 123.3143
0750 1420698730 122.6492
0751 1420701660 124.6495
0752 1420704589 123.8350
0753 1420707519 122.0356
0754 1420710449 122.6958
0755 1420713378 121.9808
0756 1420716308 123.8571
0757 1420719238 123.2457
0758 1420722167 121.6194
0759 1420725097 122.3769
0760 1420728027 123.5414
0761 1420730957 123.4384
0762 1420733886 121.2027
0763 1420736816 123.3308
0764 1420739746 121.6674
0765 1420742675 123.2126
0766 1420745605 123.0276
0767 1420748535 122.3532
0768 1420751464 120.8364
0769 1420754394 121.4665
0770 1420757324 121.0202
0771 1420760253 121.4167
0772 1420763183 122.0569
0773 1420766113 120.8493
0774 1420769042 120.8693
0775 1420771972 120.9759
0776 1420774902 122.1760
0777 1420777832 120.8966
0778 1420780761 121.1020
0779 1420783691 122.2709
0780 1420786621 120.5544
0781 1420789550 119.3079
0782 1420792480 119.0712
0783 1420795410 118.9187
0784 1420798339 120.5438
0785 1420801269 129.3468
0786 1420804199 125.2964
0787 1420807128 120.2247
0788 1420810058 119.5107
0789 1420812988 119.6787
0790 1420815917 118.5976
0791 1420818847 120.1749
0792 1420821777 117.0895
0793 1420824707 118.9139
0794 1420827636 118.3113
0795 1420830566 117.3018
0796 1420833496 118.1679
0797 1420836425 118.4540
0798 1420839355 118.4842
0799 1420842285 118.2489
0800 1420845214 115.5209
0801 1420848144 116.2278
0802 1420851074 118.5232
0803 1420854003 117.8041
0804 1420856933 118.2019
0805 1420859863 116.8100
0806 1420862792 115.5898
0807 1420865722 116.1756
0808 1420868652 115.5256
0809 1420871582 115.9921
0810 1420874511 114.7112
0811 1420877441 115.5250
0812 1420880371 116.0039
0813 1420883300 114.6637
0814 1420886230 113.8805
0815 1420889160 113.7391
0816 1420892089 113.1974
0817 1420895019 113.0646
0818 1420897949 114.4259
0819 1420900878 114.0281
0820 1420903808 113.7609
0821 1420906738 114.0602
0822 1420909667 112.0029
0823 1420912597 113.7300
0824 1420915527 112.5256
0825 1420918457 111.9620
0826 1420921386 110.9273
0827 1420924316 111.2356
0828 1420927246 111.0819
0829 1420930175 110.5401
0830 1420933105 109.8625
0831 1420936035 108.6988
0832 1420938964 108.1258
0833 1420941894 108.3165
0834 1420944824 110.1842
0835 1420947753 108.0028
0836 1420950683 107.9458
0837 1420953613 105.9838
0838 1420956542 107.2373
0839 1420959472 105.7894
0840 1420962402 106.0479
0841 1420965332 106.5337
0842 1420968261 104.3086
0843 1420971191 102.9532
0844 1420974121 104.1495
0845 1420977050 103.0681
0846 1420979980 102.4855
0847 1420982910 102.5377
0848 1420985839 102.3213
0849 1420988769 102.2270
0850 1420991699 101.0854
0851 1420994628 100.8818
0852 1420997558 101.7217
0853 1421000488 99.8508
0854 1421003417 99.2151
0855 1421006347 98.2162
0856 1421009277 98.5808
0857 1421012207 98.3260
0858 1421015136 97.5069
0859 1421018066 97.3429
0860 1421020996 96.7529
0861 1421023925 95.7068
0862 1421026855 94.5675
0863 1421029785 95.0755
0864 1421032714 93.0819
0865 1421035644 95.2901
0866 1421038574 94.3398
0867 1421041503 92.2289
0868 1421044433 91.2990
0869 1421047363 92.1663
0870 1421050292 91.7781
0871 1421053222 91.4511
0872 1421056152 90.1096
0873 1421059082 90.0588
0874 1421062011 88.4646
0875 1421064941 88.4167
0876 1421067871 87.0583
0877 1421070800 87.7077
0878 1421073730 85.7907
0879 1421076660 85.8150
0880 1421079589 85.1742
0881 1421082519 84.7815
0882 1421085449 84.2769
0883 1421088378 83.9907
0884 1421091308 82.4588
0885 1421094238 81.2840
0886 1421097167 80.6702
0887 1421100097 80.8494
0888 1421103027 80.5710
0889 1421105957 79.8724
0890 1421108886 78.6149
0891 1421111816 78.0905
0892 1421114746 78.3816
0893 1421117675 77.3434
0894 1421120605 76.4573
0895 1421123535 75.9964
0896 1421126464 74.6445
0897 1421129394 73.9513
0898 1421132324 73.9008
0899 1421135253 72.3257
0900 1421138183 72.1927
0901 1421141113 71.2260
0902 1421144042 71.6004
0903 1421146972 70.6941
0904 1421149902 70.0340
0905 1421152832 68.7753
0906 1421155761 68.8471
0907 1421158691 67.4503
0908 1421161621 67.3006
0909 1421164550 64.9960
0910 1421167480 65.0535
0911 1421170410 64.5629
0912 1421173339 63.6654
0913 1421176269 62.2554
0914 1421179199 62.0411
0915 1421182128 61.4015
0916 1421185058 61.6702
0917 1421187988 60.5557
0918 1421190917 59.5816
0919 1421193847 59.1684
0920 1421196777 58.1593
0921 1421199707 58.0037
0922 1421202636 56.8752
0923 1421205566 56.3925
0924 1421208496 56.2522
0925 1421211425 55.4620
0926 1421214355 54.0805
0927 1421217285 53.3727
0928 1421220214 53.1041
0929 1421223144 51.8278
0930 1421226074 51.2299
0931 1421229003 50.7693
0932 1421231933 50.1890
0933 1421234863 49.0742
0934 1421237792 49.2234
0935 1421240722 48.2341
0936 1421243652 47.5274
0937 1421246582 46.9027
0938 1421249511 46.1521
0939 1421252441 45.8464
0940 1421255371 45.0635
0941 1421258300 44.6248
0942 1421261230 43.6654
0943 1421264160 43.0825
0944 1421267089 42.7649
0945 1421270019 41.7028
0946 1421272949 41.6456
0947 1421275878 41.1316
0948 1421278808 40.8523
0949 1421281738 39.4011
0950 1421284667 39.1086
0951 1421287597 38.4836
0952 1421290527 38.0088
0953 1421293457 37.7873
0954 1421296386 37.0869
0955 1421299316 36.0687
0956 1421302246 35.4017
0957 1421305175 35.3772
0958 1421308105 34.8958
0959 1421311035 34.7899
0960 1421313964 33.7468
0961 1421316894 33.1347
0962 1421319824 32.8706
0963 1421322753 32.6150
0964 1421325683 31.4570
0965 1421328613 31.3471
0966 1421331542 30.6810
0967 1421334472 30.2580
0968 1421337402 29.6858
0969 1421340332 29.5538
0970 1421343261 29.0378
0971 1421346191 28.4894
0972 1421349121 27.5989
0973 1421352050 27.1926
0974 1421354980 26.7920
0975 1421357910 26.7122
0976 1421360839 25.8410
0977 1421363769 25.5947
0978 1421366699 25.2516
0979 1421369628 24.9611
0980 1421372558 24.4932
0981 1421375488 24.0565
0982 1421378417 23.8182
0983 1421381347 23.3695
0984 1421384277 23.1324
0985 1421387207 22.8862
0986 1421390136 22.0333
0987 1421393066 22.1450
0988 1421395996 22.0934
0989 1421398925 21.3731
0990 1421401855 21.1461
0991 1421404785 20.6680
0992 1421407714 20.2375
0993 1421410644 20.0321
0994 1421413574 19.9111
0995 1421416503 19.3430
0996 1421419433 19.2603
0997 1421422363 19.1927
0998 1421425292 18.7194
0999 1421428222 18.1936
1000 1421431152 18.2153
1001 1421434082 18.0543
1002 1421437011 17.9459
1003 1421439941 17.6677
1004 1421442871 17.5040
1005 1421445800 17.1988
1006 1421448730 17.0390
1007 1421451660 16.8384
1008 1421454589 16.6085
1009 1421457519 16.5593
1010 1421460449 16.4831
1011 1421463378 16.2184
1012 1421466308 15.8543
1013 1421469238 15.9337
1014 1421472167 15.7001
1015 1421475097 15.5513
1016 1421478027 15.7363
1017 1421480957 15.8113
1018 1421483886 15.5587
1019 1421486816 15.4028
1020 1421489746 15.3188
1021 1421492675 15.2671
1022 1421495605 15.0922
1023 1421498535 15.0807
