# File: 20-05-29T170655.ast
# NOTEA     = None Attached.  RTLSDR Dongle Test
# NOTEB     = Spectral Integration
# OBSERVER  = Science Aficionado
# DEVICE    = rtl=0,bias=1
# DATADIR   = ../data/
# SITE      = Small Metal Horn - NeSDR Test
# CITY      = Green Bank
# REGION    = West Virginia
# COUNTRY   = US
# TELTYPE   = Bubble Wrap  Horn
# FRAME     = TOPO
# GAIN1     = 40.0
# GAIN2     = 11.0
# GAIN3     = 11.0
# GAIN4     = 0.0
# Count     = 2500
# CenterFreq= 1420000000.0
# Bandwidth = 3000000.0
# Duration  = 21.831063
# DeltaX    = 5859.375
# TSYS      = 200.0
# TRX       = 100.0
# TRMS      = 2.0
# TINT      = 1.0
# KPERC     = 100.0
# GAINFACT  = 1.0
# BUNIT     = Counts
# NCHAN     = 1024
# NSPEC     = 1
# NTIME     = 0
# NSAMPLES  = 0
# EPEAK     = 4.10875183718
# ERMS      = 0.995973393526
# EMJD      = 58568.808999981004 
# REFCHAN   = 512.0
# REFSAMPL  = 256.0
# NAVE      = 50
# NMEDIAN   = 1024
# Fft_rate  = 5000
# UTC       = 2020-05-29 17:06:55.492196
# SECONDS   =       0.0000000000 
# LST       = 04:18:17.560
# AZ        = 180.0
# EL        = 90.0
# TELLON    = -79:50:22.920
# TELLAT    = +38:25:59.160
# RA        = 04:15:36.260
# DEC       = +38:20:10.500
# GALLON    = 161:03:58.80
# GALLAT    = -08:58:49.00
# ALT_SUN   = +73:11:50.8
# AZ_SUN    = +171:58:57.9
# ETAA      = 0.8
# ETAB      = 0.99
# POLANGLE  = 0.0
# TELSIZEAM = 1.0
# TELSIZEBM = 1.0
# AST_VERS  = 05.01
0000 1418501464 15.1725
0001 1418504394 15.2130
0002 1418507324 15.2175
0003 1418510253 15.1151
0004 1418513183 14.8312
0005 1418516113 15.1190
0006 1418519042 15.0337
0007 1418521972 15.0866
0008 1418524902 15.0391
0009 1418527832 14.9717
0010 1418530761 15.5358
0011 1418533691 15.3143
0012 1418536621 15.2668
0013 1418539550 15.4220
0014 1418542480 15.5386
0015 1418545410 15.7986
0016 1418548339 15.6770
0017 1418551269 15.7558
0018 1418554199 15.8525
0019 1418557128 16.1041
0020 1418560058 16.0686
0021 1418562988 16.0429
0022 1418565917 16.3890
0023 1418568847 16.6371
0024 1418571777 16.7507
0025 1418574707 16.6414
0026 1418577636 17.1205
0027 1418580566 17.1927
0028 1418583496 17.4705
0029 1418586425 17.7043
0030 1418589355 17.5649
0031 1418592285 17.8448
0032 1418595214 18.2683
0033 1418598144 18.7010
0034 1418601074 18.6711
0035 1418604003 19.1920
0036 1418606933 19.3577
0037 1418609863 19.3835
0038 1418612792 19.6975
0039 1418615722 20.2117
0040 1418618652 20.1982
0041 1418621582 20.4635
0042 1418624511 20.6369
0043 1418627441 21.2118
0044 1418630371 21.2568
0045 1418633300 21.8409
0046 1418636230 21.7797
0047 1418639160 22.3752
0048 1418642089 22.4395
0049 1418645019 23.3501
0050 1418647949 23.4077
0051 1418650878 23.8105
0052 1418653808 23.9425
0053 1418656738 24.4906
0054 1418659667 25.0327
0055 1418662597 25.2840
0056 1418665527 25.6711
0057 1418668457 25.9963
0058 1418671386 26.5324
0059 1418674316 26.7749
0060 1418677246 27.1856
0061 1418680175 27.5206
0062 1418683105 27.9486
0063 1418686035 28.5375
0064 1418688964 28.6801
0065 1418691894 28.6464
0066 1418694824 29.5213
0067 1418697753 30.1137
0068 1418700683 30.5749
0069 1418703613 30.9909
0070 1418706542 31.5680
0071 1418709472 32.3661
0072 1418712402 32.5809
0073 1418715332 33.3851
0074 1418718261 33.1544
0075 1418721191 33.9006
0076 1418724121 34.2205
0077 1418727050 34.6396
0078 1418729980 35.3061
0079 1418732910 36.0360
0080 1418735839 36.5699
0081 1418738769 36.7370
0082 1418741699 37.6192
0083 1418744628 38.4253
0084 1418747558 38.8355
0085 1418750488 39.2572
0086 1418753417 39.6900
0087 1418756347 39.6305
0088 1418759277 40.6253
0089 1418762207 41.6713
0090 1418765136 41.6295
0091 1418768066 42.1113
0092 1418770996 42.0887
0093 1418773925 43.1812
0094 1418776855 43.8760
0095 1418779785 43.7965
0096 1418782714 44.6298
0097 1418785644 45.4795
0098 1418788574 46.3668
0099 1418791503 46.9145
0100 1418794433 47.1112
0101 1418797363 47.7898
0102 1418800292 48.3395
0103 1418803222 49.0294
0104 1418806152 49.7535
0105 1418809082 49.8772
0106 1418812011 50.5318
0107 1418814941 51.3372
0108 1418817871 51.0899
0109 1418820800 52.3069
0110 1418823730 52.5013
0111 1418826660 54.0247
0112 1418829589 53.8893
0113 1418832519 54.7518
0114 1418835449 53.9635
0115 1418838378 56.1849
0116 1418841308 56.4876
0117 1418844238 56.8964
0118 1418847167 57.0825
0119 1418850097 57.6867
0120 1418853027 57.8888
0121 1418855957 58.5090
0122 1418858886 60.1558
0123 1418861816 60.0937
0124 1418864746 60.7615
0125 1418867675 61.5262
0126 1418870605 62.8144
0127 1418873535 62.8596
0128 1418876464 63.4522
0129 1418879394 64.1625
0130 1418882324 64.3431
0131 1418885253 66.0210
0132 1418888183 65.6613
0133 1418891113 66.1060
0134 1418894042 66.8986
0135 1418896972 66.0465
0136 1418899902 67.4932
0137 1418902832 68.6842
0138 1418905761 69.0133
0139 1418908691 68.9486
0140 1418911621 69.5671
0141 1418914550 70.1527
0142 1418917480 71.5764
0143 1418920410 71.7729
0144 1418923339 72.3733
0145 1418926269 73.9160
0146 1418929199 74.4930
0147 1418932128 73.4511
0148 1418935058 73.8213
0149 1418937988 74.4048
0150 1418940917 75.0513
0151 1418943847 75.9349
0152 1418946777 76.3292
0153 1418949707 76.6282
0154 1418952636 78.8256
0155 1418955566 76.8613
0156 1418958496 78.7349
0157 1418961425 79.6787
0158 1418964355 78.6956
0159 1418967285 79.0649
0160 1418970214 80.1166
0161 1418973144 81.0545
0162 1418976074 80.7656
0163 1418979003 81.7480
0164 1418981933 82.6883
0165 1418984863 83.6093
0166 1418987792 82.4728
0167 1418990722 82.6288
0168 1418993652 84.5554
0169 1418996582 85.0281
0170 1418999511 84.8988
0171 1419002441 86.0511
0172 1419005371 85.6740
0173 1419008300 87.0311
0174 1419011230 86.8507
0175 1419014160 87.5004
0176 1419017089 87.0350
0177 1419020019 87.7502
0178 1419022949 88.5365
0179 1419025878 88.5980
0180 1419028808 89.4513
0181 1419031738 90.8139
0182 1419034667 90.3752
0183 1419037597 90.7937
0184 1419040527 90.7058
0185 1419043457 91.2228
0186 1419046386 90.1201
0187 1419049316 91.8171
0188 1419052246 91.9300
0189 1419055175 91.3126
0190 1419058105 92.1861
0191 1419061035 93.0512
0192 1419063964 93.7543
0193 1419066894 93.2806
0194 1419069824 93.6288
0195 1419072753 95.2824
0196 1419075683 94.6656
0197 1419078613 94.9073
0198 1419081542 96.3037
0199 1419084472 96.1020
0200 1419087402 95.7079
0201 1419090332 95.0093
0202 1419093261 96.0338
0203 1419096191 95.6826
0204 1419099121 97.2317
0205 1419102050 97.6324
0206 1419104980 98.4569
0207 1419107910 97.9049
0208 1419110839 97.6820
0209 1419113769 98.3851
0210 1419116699 99.8937
0211 1419119628 98.3275
0212 1419122558 99.4228
0213 1419125488 99.5066
0214 1419128417 98.0304
0215 1419131347 100.6564
0216 1419134277 99.9248
0217 1419137207 99.7084
0218 1419140136 99.9492
0219 1419143066 101.7392
0220 1419145996 103.2125
0221 1419148925 101.6235
0222 1419151855 102.3511
0223 1419154785 101.1784
0224 1419157714 102.1905
0225 1419160644 102.9262
0226 1419163574 102.9903
0227 1419166503 102.1253
0228 1419169433 103.6386
0229 1419172363 101.4765
0230 1419175292 104.5774
0231 1419178222 102.3808
0232 1419181152 102.7087
0233 1419184082 102.1682
0234 1419187011 103.0971
0235 1419189941 102.9023
0236 1419192871 104.1088
0237 1419195800 104.6900
0238 1419198730 103.9134
0239 1419201660 105.0141
0240 1419204589 104.7175
0241 1419207519 104.3563
0242 1419210449 103.6257
0243 1419213378 103.9503
0244 1419216308 104.9822
0245 1419219238 104.6523
0246 1419222167 105.1568
0247 1419225097 105.1820
0248 1419228027 104.8156
0249 1419230957 105.0358
0250 1419233886 106.1299
0251 1419236816 105.4370
0252 1419239746 104.8152
0253 1419242675 105.4433
0254 1419245605 106.4323
0255 1419248535 107.6059
0256 1419251464 106.1761
0257 1419254394 107.0982
0258 1419257324 107.8056
0259 1419260253 106.1689
0260 1419263183 104.5594
0261 1419266113 106.2659
0262 1419269042 105.7919
0263 1419271972 106.7975
0264 1419274902 106.7533
0265 1419277832 105.0381
0266 1419280761 105.9310
0267 1419283691 107.3845
0268 1419286621 106.6729
0269 1419289550 105.4865
0270 1419292480 107.5307
0271 1419295410 106.6597
0272 1419298339 107.9806
0273 1419301269 107.6547
0274 1419304199 106.5870
0275 1419307128 109.2290
0276 1419310058 108.8435
0277 1419312988 108.9401
0278 1419315917 108.5380
0279 1419318847 107.2681
0280 1419321777 108.4103
0281 1419324707 107.3598
0282 1419327636 107.2080
0283 1419330566 109.3202
0284 1419333496 109.9518
0285 1419336425 108.6703
0286 1419339355 108.0010
0287 1419342285 107.5464
0288 1419345214 107.9920
0289 1419348144 109.3005
0290 1419351074 107.3044
0291 1419354003 109.4654
0292 1419356933 108.4735
0293 1419359863 107.4474
0294 1419362792 108.5101
0295 1419365722 108.7641
0296 1419368652 109.4768
0297 1419371582 108.7816
0298 1419374511 109.2215
0299 1419377441 109.1004
0300 1419380371 110.4564
0301 1419383300 109.4261
0302 1419386230 109.3457
0303 1419389160 107.8753
0304 1419392089 110.0852
0305 1419395019 111.0459
0306 1419397949 108.0648
0307 1419400878 109.4339
0308 1419403808 110.1576
0309 1419406738 109.8616
0310 1419409667 110.0145
0311 1419412597 110.5719
0312 1419415527 108.5499
0313 1419418457 110.0441
0314 1419421386 111.3427
0315 1419424316 111.1084
0316 1419427246 109.4356
0317 1419430175 111.8559
0318 1419433105 110.9400
0319 1419436035 110.8004
0320 1419438964 112.4595
0321 1419441894 111.0922
0322 1419444824 112.5588
0323 1419447753 113.2597
0324 1419450683 113.1073
0325 1419453613 112.3317
0326 1419456542 112.2528
0327 1419459472 112.0853
0328 1419462402 111.6556
0329 1419465332 112.2850
0330 1419468261 112.0534
0331 1419471191 111.8018
0332 1419474121 113.4085
0333 1419477050 113.0915
0334 1419479980 112.5732
0335 1419482910 112.5423
0336 1419485839 114.1169
0337 1419488769 113.2329
0338 1419491699 113.4929
0339 1419494628 114.9167
0340 1419497558 113.3446
0341 1419500488 113.9492
0342 1419503417 114.6377
0343 1419506347 114.1631
0344 1419509277 111.8873
0345 1419512207 115.0566
0346 1419515136 115.3897
0347 1419518066 115.2112
0348 1419520996 114.2172
0349 1419523925 116.3503
0350 1419526855 115.2562
0351 1419529785 115.6091
0352 1419532714 116.6934
0353 1419535644 116.7394
0354 1419538574 116.8059
0355 1419541503 115.7921
0356 1419544433 117.6060
0357 1419547363 117.7008
0358 1419550292 116.6708
0359 1419553222 116.5655
0360 1419556152 117.0318
0361 1419559082 119.1608
0362 1419562011 117.2095
0363 1419564941 116.2259
0364 1419567871 118.9098
0365 1419570800 119.3982
0366 1419573730 118.8278
0367 1419576660 117.9828
0368 1419579589 118.9139
0369 1419582519 119.1443
0370 1419585449 117.3779
0371 1419588378 120.0182
0372 1419591308 121.1517
0373 1419594238 121.6141
0374 1419597167 120.2172
0375 1419600097 120.0729
0376 1419603027 119.9334
0377 1419605957 121.8690
0378 1419608886 121.3534
0379 1419611816 120.7641
0380 1419614746 122.1340
0381 1419617675 122.4486
0382 1419620605 122.4993
0383 1419623535 122.7681
0384 1419626464 122.4882
0385 1419629394 122.6600
0386 1419632324 123.3425
0387 1419635253 125.7459
0388 1419638183 122.6103
0389 1419641113 123.6309
0390 1419644042 125.4743
0391 1419646972 122.4147
0392 1419649902 125.8804
0393 1419652832 123.9710
0394 1419655761 129.5072
0395 1419658691 129.7662
0396 1419661621 127.1520
0397 1419664550 126.9310
0398 1419667480 127.9816
0399 1419670410 126.2856
0400 1419673339 125.6257
0401 1419676269 127.0989
0402 1419679199 127.1500
0403 1419682128 128.4807
0404 1419685058 126.6939
0405 1419687988 128.3067
0406 1419690917 128.5657
0407 1419693847 129.4129
0408 1419696777 127.5277
0409 1419699707 129.6613
0410 1419702636 128.9168
0411 1419705566 130.0201
0412 1419708496 131.6488
0413 1419711425 131.0488
0414 1419714355 129.0846
0415 1419717285 129.4687
0416 1419720214 129.3085
0417 1419723144 130.2103
0418 1419726074 130.7769
0419 1419729003 131.2396
0420 1419731933 131.6868
0421 1419734863 132.9296
0422 1419737792 134.6079
0423 1419740722 133.0230
0424 1419743652 130.2816
0425 1419746582 133.2649
0426 1419749511 133.3799
0427 1419752441 134.9618
0428 1419755371 134.3812
0429 1419758300 134.3620
0430 1419761230 133.1241
0431 1419764160 134.4467
0432 1419767089 134.4184
0433 1419770019 134.7799
0434 1419772949 135.6943
0435 1419775878 136.5110
0436 1419778808 136.2907
0437 1419781738 136.6712
0438 1419784667 137.7278
0439 1419787597 138.0692
0440 1419790527 137.8924
0441 1419793457 137.7170
0442 1419796386 137.7676
0443 1419799316 138.6039
0444 1419802246 136.8564
0445 1419805175 138.4095
0446 1419808105 140.4684
0447 1419811035 138.5278
0448 1419813964 138.7278
0449 1419816894 139.2331
0450 1419819824 139.3746
0451 1419822753 139.5254
0452 1419825683 139.7688
0453 1419828613 140.1518
0454 1419831542 141.1125
0455 1419834472 140.1776
0456 1419837402 142.4105
0457 1419840332 141.1526
0458 1419843261 139.6062
0459 1419846191 140.7193
0460 1419849121 140.4526
0461 1419852050 143.0316
0462 1419854980 141.7606
0463 1419857910 144.2896
0464 1419860839 144.3800
0465 1419863769 143.5392
0466 1419866699 143.0352
0467 1419869628 145.6652
0468 1419872558 145.9326
0469 1419875488 144.7359
0470 1419878417 143.6833
0471 1419881347 145.2054
0472 1419884277 144.9827
0473 1419887207 142.6597
0474 1419890136 146.1810
0475 1419893066 145.1047
0476 1419895996 144.3551
0477 1419898925 146.1802
0478 1419901855 148.1561
0479 1419904785 146.4970
0480 1419907714 146.5013
0481 1419910644 146.6655
0482 1419913574 145.0289
0483 1419916503 145.1597
0484 1419919433 147.7829
0485 1419922363 147.9365
0486 1419925292 147.9129
0487 1419928222 148.0622
0488 1419931152 148.2816
0489 1419934082 148.5163
0490 1419937011 150.6153
0491 1419939941 150.3261
0492 1419942871 148.0182
0493 1419945800 149.2608
0494 1419948730 149.6136
0495 1419951660 150.5141
0496 1419954589 151.7158
0497 1419957519 150.9866
0498 1419960449 151.3388
0499 1419963378 151.5150
0500 1419966308 149.9433
0501 1419969238 151.0882
0502 1419972167 152.0348
0503 1419975097 153.6637
0504 1419978027 151.4648
0505 1419980957 153.8696
0506 1419983886 154.8879
0507 1419986816 157.4663
0508 1419989746 159.8835
0509 1419992675 164.7788
0510 1419995605 169.9625
0511 1419998535 195.9171
0512 1420001464 248.9166
0513 1420004394 195.1979
0514 1420007324 170.5462
0515 1420010253 162.8905
0516 1420013183 160.3208
0517 1420016113 160.2564
0518 1420019042 156.0173
0519 1420021972 156.3149
0520 1420024902 156.3655
0521 1420027832 152.3545
0522 1420030761 154.8003
0523 1420033691 156.6145
0524 1420036621 152.5022
0525 1420039550 153.0614
0526 1420042480 151.9879
0527 1420045410 152.6809
0528 1420048339 154.0804
0529 1420051269 151.6415
0530 1420054199 152.8752
0531 1420057128 153.1816
0532 1420060058 153.1213
0533 1420062988 150.9773
0534 1420065917 151.8706
0535 1420068847 151.5973
0536 1420071777 150.9112
0537 1420074707 151.5017
0538 1420077636 151.9113
0539 1420080566 151.2346
0540 1420083496 152.1846
0541 1420086425 152.0096
0542 1420089355 150.0050
0543 1420092285 148.9547
0544 1420095214 147.6545
0545 1420098144 150.8447
0546 1420101074 147.7655
0547 1420104003 150.0009
0548 1420106933 150.0283
0549 1420109863 151.9213
0550 1420112792 149.6183
0551 1420115722 148.6626
0552 1420118652 150.0433
0553 1420121582 151.0734
0554 1420124511 149.1014
0555 1420127441 148.8379
0556 1420130371 148.3000
0557 1420133300 149.3291
0558 1420136230 148.0657
0559 1420139160 149.2665
0560 1420142089 147.3110
0561 1420145019 146.7591
0562 1420147949 151.2011
0563 1420150878 149.2150
0564 1420153808 148.4966
0565 1420156738 147.2106
0566 1420159667 147.3365
0567 1420162597 147.5374
0568 1420165527 146.3199
0569 1420168457 146.3384
0570 1420171386 148.5957
0571 1420174316 150.4128
0572 1420177246 147.7965
0573 1420180175 144.7184
0574 1420183105 144.4854
0575 1420186035 147.2617
0576 1420188964 147.8175
0577 1420191894 149.1493
0578 1420194824 147.0993
0579 1420197753 148.9119
0580 1420200683 150.0617
0581 1420203613 148.4932
0582 1420206542 150.1171
0583 1420209472 147.8262
0584 1420212402 147.0436
0585 1420215332 148.7178
0586 1420218261 148.6372
0587 1420221191 148.1946
0588 1420224121 150.7284
0589 1420227050 148.0467
0590 1420229980 148.4018
0591 1420232910 149.7052
0592 1420235839 148.2907
0593 1420238769 149.1267
0594 1420241699 149.4163
0595 1420244628 149.6155
0596 1420247558 146.5727
0597 1420250488 148.2820
0598 1420253417 148.8171
0599 1420256347 149.9674
0600 1420259277 149.5974
0601 1420262207 148.4336
0602 1420265136 151.3813
0603 1420268066 147.9550
0604 1420270996 148.5349
0605 1420273925 150.6563
0606 1420276855 152.2275
0607 1420279785 150.0945
0608 1420282714 150.3039
0609 1420285644 151.9209
0610 1420288574 149.6060
0611 1420291503 153.3587
0612 1420294433 149.5880
0613 1420297363 150.3879
0614 1420300292 150.8633
0615 1420303222 151.8236
0616 1420306152 153.0796
0617 1420309082 151.7505
0618 1420312011 152.4195
0619 1420314941 152.5609
0620 1420317871 152.8140
0621 1420320800 151.8324
0622 1420323730 151.2879
0623 1420326660 153.5251
0624 1420329589 153.8271
0625 1420332519 152.5480
0626 1420335449 152.1931
0627 1420338378 152.2585
0628 1420341308 152.2286
0629 1420344238 149.1366
0630 1420347167 149.2847
0631 1420350097 151.0040
0632 1420353027 151.4307
0633 1420355957 150.0414
0634 1420358886 149.5024
0635 1420361816 148.7550
0636 1420364746 150.6057
0637 1420367675 150.0113
0638 1420370605 148.5349
0639 1420373535 148.5464
0640 1420376464 145.3350
0641 1420379394 145.8127
0642 1420382324 148.0214
0643 1420385253 147.9249
0644 1420388183 147.3837
0645 1420391113 145.2579
0646 1420394042 147.6468
0647 1420396972 146.9212
0648 1420399902 146.1707
0649 1420402832 145.3077
0650 1420405761 145.3038
0651 1420408691 145.1442
0652 1420411621 143.8065
0653 1420414550 144.6534
0654 1420417480 144.0638
0655 1420420410 144.2173
0656 1420423339 144.6086
0657 1420426269 144.0005
0658 1420429199 143.2775
0659 1420432128 143.7083
0660 1420435058 143.3965
0661 1420437988 141.3429
0662 1420440917 139.9603
0663 1420443847 141.1458
0664 1420446777 142.7567
0665 1420449707 140.2057
0666 1420452636 139.2910
0667 1420455566 140.0140
0668 1420458496 139.8796
0669 1420461425 138.4884
0670 1420464355 139.8154
0671 1420467285 139.5389
0672 1420470214 139.2124
0673 1420473144 138.2646
0674 1420476074 138.0524
0675 1420479003 137.9895
0676 1420481933 137.1493
0677 1420484863 135.7784
0678 1420487792 135.3193
0679 1420490722 136.6866
0680 1420493652 136.2063
0681 1420496582 135.1812
0682 1420499511 135.3952
0683 1420502441 135.9081
0684 1420505371 135.9278
0685 1420508300 133.5440
0686 1420511230 134.3305
0687 1420514160 134.6353
0688 1420517089 133.2908
0689 1420520019 132.2950
0690 1420522949 132.3228
0691 1420525878 132.6688
0692 1420528808 131.7304
0693 1420531738 129.8818
0694 1420534667 131.9069
0695 1420537597 131.3221
0696 1420540527 132.4937
0697 1420543457 132.6195
0698 1420546386 131.9811
0699 1420549316 129.3187
0700 1420552246 131.3861
0701 1420555175 130.3166
0702 1420558105 128.9802
0703 1420561035 130.3872
0704 1420563964 128.8586
0705 1420566894 129.1186
0706 1420569824 129.2717
0707 1420572753 130.0626
0708 1420575683 128.7516
0709 1420578613 128.0294
0710 1420581542 128.2983
0711 1420584472 127.7334
0712 1420587402 127.9321
0713 1420590332 128.3843
0714 1420593261 127.6241
0715 1420596191 127.9574
0716 1420599121 127.6341
0717 1420602050 128.4240
0718 1420604980 128.6975
0719 1420607910 126.1039
0720 1420610839 126.9015
0721 1420613769 128.1440
0722 1420616699 127.4139
0723 1420619628 127.8634
0724 1420622558 126.5337
0725 1420625488 127.2145
0726 1420628417 125.5317
0727 1420631347 126.2431
0728 1420634277 125.9477
0729 1420637207 123.8275
0730 1420640136 124.2678
0731 1420643066 126.0208
0732 1420645996 124.7313
0733 1420648925 124.8368
0734 1420651855 125.4036
0735 1420654785 126.8929
0736 1420657714 125.7966
0737 1420660644 125.2624
0738 1420663574 123.9839
0739 1420666503 123.7255
0740 1420669433 123.6881
0741 1420672363 125.8482
0742 1420675292 124.8655
0743 1420678222 123.5116
0744 1420681152 125.3932
0745 1420684082 126.7706
0746 1420687011 125.3690
0747 1420689941 126.2499
0748 1420692871 124.5801
0749 1420695800 126.4912
0750 1420698730 126.2179
0751 1420701660 125.8445
0752 1420704589 123.8948
0753 1420707519 123.8681
0754 1420710449 125.1263
0755 1420713378 122.1668
0756 1420716308 124.1105
0757 1420719238 123.3018
0758 1420722167 123.8595
0759 1420725097 123.8555
0760 1420728027 124.0390
0761 1420730957 123.7697
0762 1420733886 121.8825
0763 1420736816 122.4611
0764 1420739746 122.6843
0765 1420742675 123.9606
0766 1420745605 123.2543
0767 1420748535 123.7324
0768 1420751464 122.1387
0769 1420754394 123.8075
0770 1420757324 120.8969
0771 1420760253 120.5647
0772 1420763183 122.0575
0773 1420766113 122.6840
0774 1420769042 122.4342
0775 1420771972 122.1074
0776 1420774902 123.2080
0777 1420777832 120.4993
0778 1420780761 122.3342
0779 1420783691 121.0705
0780 1420786621 121.0936
0781 1420789550 122.6968
0782 1420792480 121.2217
0783 1420795410 120.1826
0784 1420798339 122.3112
0785 1420801269 129.6609
0786 1420804199 124.3480
0787 1420807128 120.7200
0788 1420810058 121.1445
0789 1420812988 120.8871
0790 1420815917 119.7114
0791 1420818847 120.4327
0792 1420821777 119.2443
0793 1420824707 119.7997
0794 1420827636 118.7671
0795 1420830566 119.5918
0796 1420833496 120.2174
0797 1420836425 117.8997
0798 1420839355 118.8525
0799 1420842285 117.4485
0800 1420845214 117.9378
0801 1420848144 118.2078
0802 1420851074 117.2197
0803 1420854003 119.2201
0804 1420856933 117.6297
0805 1420859863 117.7101
0806 1420862792 116.8520
0807 1420865722 115.4359
0808 1420868652 117.4632
0809 1420871582 116.8618
0810 1420874511 116.5446
0811 1420877441 116.2447
0812 1420880371 116.1247
0813 1420883300 116.5451
0814 1420886230 114.3128
0815 1420889160 116.5098
0816 1420892089 114.8469
0817 1420895019 113.5608
0818 1420897949 114.3709
0819 1420900878 113.6622
0820 1420903808 113.3588
0821 1420906738 112.3666
0822 1420909667 112.7202
0823 1420912597 113.4016
0824 1420915527 112.5866
0825 1420918457 112.6360
0826 1420921386 111.3124
0827 1420924316 112.3132
0828 1420927246 112.1612
0829 1420930175 110.6459
0830 1420933105 110.9316
0831 1420936035 109.3925
0832 1420938964 110.0777
0833 1420941894 110.2306
0834 1420944824 108.5805
0835 1420947753 110.3347
0836 1420950683 107.8143
0837 1420953613 109.3827
0838 1420956542 107.5212
0839 1420959472 107.8156
0840 1420962402 107.5012
0841 1420965332 105.8937
0842 1420968261 105.5759
0843 1420971191 105.8944
0844 1420974121 105.2333
0845 1420977050 105.1409
0846 1420979980 103.1289
0847 1420982910 103.3495
0848 1420985839 103.0313
0849 1420988769 102.5920
0850 1420991699 101.4058
0851 1420994628 102.9552
0852 1420997558 102.3558
0853 1421000488 101.3842
0854 1421003417 102.0692
0855 1421006347 100.4802
0856 1421009277 99.2800
0857 1421012207 98.1384
0858 1421015136 98.2195
0859 1421018066 99.4998
0860 1421020996 97.9162
0861 1421023925 97.2837
0862 1421026855 95.5871
0863 1421029785 95.9498
0864 1421032714 94.6313
0865 1421035644 95.3011
0866 1421038574 94.1746
0867 1421041503 93.2813
0868 1421044433 92.5180
0869 1421047363 91.8024
0870 1421050292 92.6061
0871 1421053222 91.5060
0872 1421056152 90.9785
0873 1421059082 90.2464
0874 1421062011 89.1267
0875 1421064941 88.6669
0876 1421067871 86.9845
0877 1421070800 85.3702
0878 1421073730 86.5519
0879 1421076660 86.3567
0880 1421079589 86.3592
0881 1421082519 84.5449
0882 1421085449 85.3365
0883 1421088378 83.9544
0884 1421091308 82.9787
0885 1421094238 82.6127
0886 1421097167 81.5112
0887 1421100097 81.7198
0888 1421103027 80.6548
0889 1421105957 79.5487
0890 1421108886 79.8670
0891 1421111816 79.0508
0892 1421114746 78.0213
0893 1421117675 77.0953
0894 1421120605 77.0606
0895 1421123535 75.5343
0896 1421126464 75.4308
0897 1421129394 74.7322
0898 1421132324 73.7385
0899 1421135253 73.0486
0900 1421138183 71.9599
0901 1421141113 71.9479
0902 1421144042 71.2819
0903 1421146972 70.8245
0904 1421149902 70.1425
0905 1421152832 67.9022
0906 1421155761 68.5385
0907 1421158691 67.6432
0908 1421161621 68.3426
0909 1421164550 65.4114
0910 1421167480 65.3113
0911 1421170410 65.7695
0912 1421173339 64.7236
0913 1421176269 64.3638
0914 1421179199 63.0879
0915 1421182128 62.5840
0916 1421185058 61.5133
0917 1421187988 60.6246
0918 1421190917 59.8533
0919 1421193847 58.8979
0920 1421196777 59.0099
0921 1421199707 58.3974
0922 1421202636 57.4719
0923 1421205566 57.0798
0924 1421208496 55.9444
0925 1421211425 54.9965
0926 1421214355 54.5633
0927 1421217285 53.8065
0928 1421220214 53.6209
0929 1421223144 53.5399
0930 1421226074 51.8751
0931 1421229003 51.5203
0932 1421231933 51.6376
0933 1421234863 50.8203
0934 1421237792 49.9972
0935 1421240722 48.4122
0936 1421243652 48.3837
0937 1421246582 47.4815
0938 1421249511 46.1542
0939 1421252441 45.7120
0940 1421255371 45.2861
0941 1421258300 44.7682
0942 1421261230 43.8963
0943 1421264160 43.8585
0944 1421267089 43.3509
0945 1421270019 42.7958
0946 1421272949 41.2819
0947 1421275878 40.9457
0948 1421278808 40.7097
0949 1421281738 40.5459
0950 1421284667 39.6758
0951 1421287597 39.2427
0952 1421290527 38.4565
0953 1421293457 38.0311
0954 1421296386 37.2354
0955 1421299316 36.0200
0956 1421302246 35.7955
0957 1421305175 35.9677
0958 1421308105 35.5327
0959 1421311035 34.1826
0960 1421313964 33.9349
0961 1421316894 33.7988
0962 1421319824 33.0163
0963 1421322753 32.4631
0964 1421325683 31.9187
0965 1421328613 31.7181
0966 1421331542 30.4981
0967 1421334472 30.3646
0968 1421337402 29.9559
0969 1421340332 29.2691
0970 1421343261 29.0286
0971 1421346191 28.1190
0972 1421349121 27.8101
0973 1421352050 27.5436
0974 1421354980 27.4493
0975 1421357910 26.6005
0976 1421360839 26.5739
0977 1421363769 25.8421
0978 1421366699 25.5126
0979 1421369628 25.1100
0980 1421372558 24.6865
0981 1421375488 24.3618
0982 1421378417 23.6249
0983 1421381347 23.4047
0984 1421384277 23.0797
0985 1421387207 22.9421
0986 1421390136 22.4910
0987 1421393066 22.0329
0988 1421395996 21.7219
0989 1421398925 21.9193
0990 1421401855 21.3275
0991 1421404785 20.7874
0992 1421407714 20.9514
0993 1421410644 20.2379
0994 1421413574 20.0239
0995 1421416503 19.6357
0996 1421419433 19.7530
0997 1421422363 19.2972
0998 1421425292 18.7036
0999 1421428222 18.7065
1000 1421431152 18.5565
1001 1421434082 18.0977
1002 1421437011 17.9251
1003 1421439941 17.5806
1004 1421442871 17.5549
1005 1421445800 17.3050
1006 1421448730 17.0211
1007 1421451660 16.9146
1008 1421454589 16.8281
1009 1421457519 16.4560
1010 1421460449 16.3181
1011 1421463378 16.1544
1012 1421466308 16.3427
1013 1421469238 15.9278
1014 1421472167 15.6757
1015 1421475097 15.8714
1016 1421478027 15.6499
1017 1421480957 15.6881
1018 1421483886 15.4931
1019 1421486816 15.3955
1020 1421489746 15.5160
1021 1421492675 15.3578
1022 1421495605 15.3398
1023 1421498535 15.2252
