# File: 20-05-29T170950.ast
# NOTEA     = None Attached.  RTLSDR Dongle Test
# NOTEB     = Spectral Integration
# OBSERVER  = Science Aficionado
# DEVICE    = rtl=0,bias=1
# DATADIR   = ../data/
# SITE      = Small Metal Horn - NeSDR Test
# CITY      = Green Bank
# REGION    = West Virginia
# COUNTRY   = US
# TELTYPE   = Bubble Wrap  Horn
# FRAME     = TOPO
# GAIN1     = 40.0
# GAIN2     = 11.0
# GAIN3     = 11.0
# GAIN4     = 0.0
# Count     = 2500
# CenterFreq= 1420000000.0
# Bandwidth = 3000000.0
# Duration  = 21.846346
# DeltaX    = 5859.375
# TSYS      = 200.0
# TRX       = 100.0
# TRMS      = 2.0
# TINT      = 1.0
# KPERC     = 100.0
# GAINFACT  = 1.0
# BUNIT     = Counts
# NCHAN     = 1024
# NSPEC     = 1
# NTIME     = 0
# NSAMPLES  = 0
# EPEAK     = 4.10875183718
# ERMS      = 0.995973393526
# EMJD      = 58568.808999981004 
# REFCHAN   = 512.0
# REFSAMPL  = 256.0
# NAVE      = 50
# NMEDIAN   = 1024
# Fft_rate  = 5000
# UTC       = 2020-05-29 17:09:50.259023
# SECONDS   =       0.0000000000 
# LST       = 04:21:12.800
# AZ        = 180.0
# EL        = 90.0
# TELLON    = -79:50:22.920
# TELLAT    = +38:25:59.160
# RA        = 04:18:31.280
# DEC       = +38:20:19.700
# GALLON    = 161:28:32.40
# GALLAT    = -08:34:33.10
# ALT_SUN   = +73:15:56.8
# AZ_SUN    = +174:18:51.3
# ETAA      = 0.8
# ETAB      = 0.99
# POLANGLE  = 0.0
# TELSIZEAM = 1.0
# TELSIZEBM = 1.0
# AST_VERS  = 05.01
0000 1418501464 14.7204
0001 1418504394 15.1051
0002 1418507324 14.9512
0003 1418510253 14.8961
0004 1418513183 14.9118
0005 1418516113 14.8281
0006 1418519042 14.8175
0007 1418521972 14.9552
0008 1418524902 15.0277
0009 1418527832 14.9748
0010 1418530761 14.9186
0011 1418533691 15.1240
0012 1418536621 15.1287
0013 1418539550 15.2766
0014 1418542480 15.4817
0015 1418545410 15.3353
0016 1418548339 15.7309
0017 1418551269 15.6823
0018 1418554199 15.6639
0019 1418557128 15.7901
0020 1418560058 15.9320
0021 1418562988 15.9451
0022 1418565917 16.1488
0023 1418568847 16.3063
0024 1418571777 16.3523
0025 1418574707 16.5864
0026 1418577636 16.9911
0027 1418580566 17.1070
0028 1418583496 17.3103
0029 1418586425 17.5431
0030 1418589355 17.5267
0031 1418592285 17.7851
0032 1418595214 18.0946
0033 1418598144 18.4789
0034 1418601074 18.5571
0035 1418604003 18.8845
0036 1418606933 18.7395
0037 1418609863 19.2227
0038 1418612792 19.6084
0039 1418615722 19.6498
0040 1418618652 20.1819
0041 1418621582 20.2488
0042 1418624511 20.5314
0043 1418627441 20.6358
0044 1418630371 21.0575
0045 1418633300 21.6127
0046 1418636230 22.0917
0047 1418639160 21.7772
0048 1418642089 22.3077
0049 1418645019 22.8935
0050 1418647949 23.3044
0051 1418650878 23.6296
0052 1418653808 23.7836
0053 1418656738 23.9519
0054 1418659667 24.4869
0055 1418662597 24.8664
0056 1418665527 25.4174
0057 1418668457 25.8031
0058 1418671386 26.0884
0059 1418674316 26.2345
0060 1418677246 26.5769
0061 1418680175 27.1209
0062 1418683105 27.5105
0063 1418686035 28.0840
0064 1418688964 28.5903
0065 1418691894 28.6948
0066 1418694824 29.7687
0067 1418697753 30.0317
0068 1418700683 29.9463
0069 1418703613 30.6131
0070 1418706542 31.3539
0071 1418709472 31.5864
0072 1418712402 32.0273
0073 1418715332 32.7922
0074 1418718261 32.5209
0075 1418721191 33.2431
0076 1418724121 33.8979
0077 1418727050 34.2157
0078 1418729980 34.3069
0079 1418732910 35.0079
0080 1418735839 35.8880
0081 1418738769 36.3518
0082 1418741699 36.5047
0083 1418744628 37.5538
0084 1418747558 37.7894
0085 1418750488 37.9777
0086 1418753417 38.7489
0087 1418756347 39.6941
0088 1418759277 39.8411
0089 1418762207 40.6638
0090 1418765136 41.3829
0091 1418768066 41.8524
0092 1418770996 42.3205
0093 1418773925 42.4407
0094 1418776855 42.9092
0095 1418779785 43.6310
0096 1418782714 44.4186
0097 1418785644 45.1107
0098 1418788574 45.2741
0099 1418791503 45.7051
0100 1418794433 47.2804
0101 1418797363 47.4578
0102 1418800292 47.9570
0103 1418803222 48.7578
0104 1418806152 48.5540
0105 1418809082 49.6752
0106 1418812011 49.9747
0107 1418814941 50.4638
0108 1418817871 51.5132
0109 1418820800 51.5832
0110 1418823730 52.8734
0111 1418826660 52.1614
0112 1418829589 53.4854
0113 1418832519 53.4880
0114 1418835449 53.5947
0115 1418838378 54.3528
0116 1418841308 56.2763
0117 1418844238 56.1181
0118 1418847167 56.9364
0119 1418850097 57.9007
0120 1418853027 57.8897
0121 1418855957 58.6298
0122 1418858886 58.9950
0123 1418861816 59.6969
0124 1418864746 60.3511
0125 1418867675 60.2192
0126 1418870605 60.9041
0127 1418873535 61.0762
0128 1418876464 62.1812
0129 1418879394 62.8637
0130 1418882324 63.2592
0131 1418885253 63.0859
0132 1418888183 64.2061
0133 1418891113 64.9557
0134 1418894042 65.5315
0135 1418896972 66.5667
0136 1418899902 66.5063
0137 1418902832 68.0165
0138 1418905761 68.4378
0139 1418908691 68.7593
0140 1418911621 69.7069
0141 1418914550 70.1803
0142 1418917480 69.5224
0143 1418920410 69.2575
0144 1418923339 70.9921
0145 1418926269 71.7955
0146 1418929199 73.5837
0147 1418932128 73.3148
0148 1418935058 73.4782
0149 1418937988 73.8243
0150 1418940917 74.4125
0151 1418943847 74.5024
0152 1418946777 75.3448
0153 1418949707 77.0046
0154 1418952636 75.0361
0155 1418955566 76.3458
0156 1418958496 77.6701
0157 1418961425 78.1202
0158 1418964355 77.0399
0159 1418967285 78.4593
0160 1418970214 79.5332
0161 1418973144 80.5850
0162 1418976074 80.2801
0163 1418979003 81.5309
0164 1418981933 80.8659
0165 1418984863 81.5639
0166 1418987792 80.9768
0167 1418990722 82.1649
0168 1418993652 82.7948
0169 1418996582 82.5638
0170 1418999511 83.9911
0171 1419002441 84.7535
0172 1419005371 85.1419
0173 1419008300 85.3374
0174 1419011230 85.8829
0175 1419014160 86.3187
0176 1419017089 85.4734
0177 1419020019 85.8641
0178 1419022949 88.1560
0179 1419025878 88.1668
0180 1419028808 88.5128
0181 1419031738 88.6353
0182 1419034667 89.9486
0183 1419037597 89.3778
0184 1419040527 89.4911
0185 1419043457 91.0404
0186 1419046386 90.2539
0187 1419049316 90.9614
0188 1419052246 90.3299
0189 1419055175 91.0983
0190 1419058105 91.0866
0191 1419061035 91.2438
0192 1419063964 92.7451
0193 1419066894 92.7452
0194 1419069824 92.6637
0195 1419072753 93.6932
0196 1419075683 93.7458
0197 1419078613 93.3567
0198 1419081542 95.1871
0199 1419084472 94.2076
0200 1419087402 94.1523
0201 1419090332 93.5948
0202 1419093261 95.4744
0203 1419096191 95.5824
0204 1419099121 96.8837
0205 1419102050 95.4942
0206 1419104980 97.1517
0207 1419107910 97.1086
0208 1419110839 95.4025
0209 1419113769 97.1470
0210 1419116699 97.4559
0211 1419119628 98.2438
0212 1419122558 99.4257
0213 1419125488 99.5779
0214 1419128417 98.4619
0215 1419131347 98.2355
0216 1419134277 100.9637
0217 1419137207 100.9128
0218 1419140136 98.6733
0219 1419143066 98.8313
0220 1419145996 102.0519
0221 1419148925 102.1383
0222 1419151855 99.9836
0223 1419154785 99.3361
0224 1419157714 100.7036
0225 1419160644 101.3046
0226 1419163574 100.9877
0227 1419166503 101.2067
0228 1419169433 101.3314
0229 1419172363 101.8531
0230 1419175292 101.4724
0231 1419178222 100.6139
0232 1419181152 103.2111
0233 1419184082 103.2650
0234 1419187011 102.9184
0235 1419189941 102.2547
0236 1419192871 103.8608
0237 1419195800 103.0139
0238 1419198730 100.9629
0239 1419201660 103.8099
0240 1419204589 101.6089
0241 1419207519 102.9832
0242 1419210449 102.4292
0243 1419213378 102.5870
0244 1419216308 103.1037
0245 1419219238 104.8778
0246 1419222167 104.1780
0247 1419225097 103.5491
0248 1419228027 103.8414
0249 1419230957 103.9894
0250 1419233886 104.6638
0251 1419236816 103.3898
0252 1419239746 104.3212
0253 1419242675 104.7748
0254 1419245605 105.4683
0255 1419248535 104.2203
0256 1419251464 106.0724
0257 1419254394 106.2224
0258 1419257324 106.0242
0259 1419260253 105.3372
0260 1419263183 106.2269
0261 1419266113 105.0441
0262 1419269042 104.8048
0263 1419271972 106.6209
0264 1419274902 106.2087
0265 1419277832 105.4681
0266 1419280761 105.4741
0267 1419283691 105.0631
0268 1419286621 106.6757
0269 1419289550 105.6210
0270 1419292480 105.2509
0271 1419295410 107.4747
0272 1419298339 106.2495
0273 1419301269 105.2782
0274 1419304199 105.9273
0275 1419307128 105.1843
0276 1419310058 105.6403
0277 1419312988 107.7343
0278 1419315917 106.5233
0279 1419318847 107.3798
0280 1419321777 106.9056
0281 1419324707 105.6892
0282 1419327636 106.2602
0283 1419330566 106.3423
0284 1419333496 106.6973
0285 1419336425 107.3461
0286 1419339355 108.5240
0287 1419342285 106.9104
0288 1419345214 106.1920
0289 1419348144 107.4292
0290 1419351074 107.0424
0291 1419354003 106.6546
0292 1419356933 107.0311
0293 1419359863 107.9045
0294 1419362792 106.4704
0295 1419365722 108.0777
0296 1419368652 107.1836
0297 1419371582 106.6326
0298 1419374511 107.6974
0299 1419377441 107.1776
0300 1419380371 107.7351
0301 1419383300 108.4437
0302 1419386230 108.4098
0303 1419389160 109.2094
0304 1419392089 107.6498
0305 1419395019 107.1717
0306 1419397949 107.5728
0307 1419400878 109.7856
0308 1419403808 108.4794
0309 1419406738 108.6691
0310 1419409667 107.3756
0311 1419412597 108.6138
0312 1419415527 109.1817
0313 1419418457 109.4450
0314 1419421386 109.8616
0315 1419424316 110.0843
0316 1419427246 110.7056
0317 1419430175 109.5932
0318 1419433105 109.9414
0319 1419436035 110.1359
0320 1419438964 109.7645
0321 1419441894 110.9779
0322 1419444824 110.3061
0323 1419447753 110.7561
0324 1419450683 110.1452
0325 1419453613 110.3048
0326 1419456542 109.8145
0327 1419459472 110.4746
0328 1419462402 111.1164
0329 1419465332 110.3159
0330 1419468261 110.8549
0331 1419471191 110.4217
0332 1419474121 111.1996
0333 1419477050 112.3625
0334 1419479980 113.1120
0335 1419482910 112.2263
0336 1419485839 112.3605
0337 1419488769 112.1124
0338 1419491699 115.0579
0339 1419494628 112.1458
0340 1419497558 112.3674
0341 1419500488 112.5921
0342 1419503417 113.0377
0343 1419506347 113.1399
0344 1419509277 111.2085
0345 1419512207 113.2611
0346 1419515136 114.3118
0347 1419518066 112.4690
0348 1419520996 113.1212
0349 1419523925 113.5377
0350 1419526855 113.2938
0351 1419529785 113.3956
0352 1419532714 115.8637
0353 1419535644 115.3375
0354 1419538574 114.3240
0355 1419541503 114.9625
0356 1419544433 115.9368
0357 1419547363 115.5567
0358 1419550292 115.5567
0359 1419553222 115.3509
0360 1419556152 114.6059
0361 1419559082 115.4752
0362 1419562011 116.8444
0363 1419564941 116.5673
0364 1419567871 116.6013
0365 1419570800 115.4691
0366 1419573730 118.9456
0367 1419576660 117.3927
0368 1419579589 117.3517
0369 1419582519 117.4210
0370 1419585449 117.9230
0371 1419588378 118.3984
0372 1419591308 118.0602
0373 1419594238 118.2917
0374 1419597167 118.7487
0375 1419600097 119.3710
0376 1419603027 118.0999
0377 1419605957 117.3038
0378 1419608886 118.6846
0379 1419611816 121.3655
0380 1419614746 120.8770
0381 1419617675 119.2722
0382 1419620605 120.7327
0383 1419623535 121.2658
0384 1419626464 120.2561
0385 1419629394 122.5262
0386 1419632324 122.7822
0387 1419635253 120.9878
0388 1419638183 121.3279
0389 1419641113 121.2146
0390 1419644042 123.0901
0391 1419646972 125.3025
0392 1419649902 123.1068
0393 1419652832 123.5618
0394 1419655761 124.2020
0395 1419658691 127.8487
0396 1419661621 125.1993
0397 1419664550 125.4812
0398 1419667480 125.1623
0399 1419670410 124.6907
0400 1419673339 125.6224
0401 1419676269 125.3230
0402 1419679199 125.8470
0403 1419682128 126.6258
0404 1419685058 126.1404
0405 1419687988 126.1626
0406 1419690917 126.3747
0407 1419693847 127.0020
0408 1419696777 126.7056
0409 1419699707 128.1046
0410 1419702636 129.6297
0411 1419705566 128.3739
0412 1419708496 125.1193
0413 1419711425 128.1445
0414 1419714355 129.0349
0415 1419717285 130.0115
0416 1419720214 128.5196
0417 1419723144 130.0893
0418 1419726074 130.3844
0419 1419729003 129.3724
0420 1419731933 130.3584
0421 1419734863 129.9475
0422 1419737792 132.2628
0423 1419740722 131.2236
0424 1419743652 132.1844
0425 1419746582 130.4237
0426 1419749511 130.4570
0427 1419752441 131.3065
0428 1419755371 133.3938
0429 1419758300 133.7456
0430 1419761230 131.6628
0431 1419764160 132.9911
0432 1419767089 134.2785
0433 1419770019 134.5634
0434 1419772949 134.0609
0435 1419775878 135.7461
0436 1419778808 133.5631
0437 1419781738 135.3128
0438 1419784667 135.0019
0439 1419787597 135.7620
0440 1419790527 134.1153
0441 1419793457 134.8157
0442 1419796386 137.0356
0443 1419799316 135.6846
0444 1419802246 137.4281
0445 1419805175 138.1074
0446 1419808105 137.6639
0447 1419811035 136.8284
0448 1419813964 138.2954
0449 1419816894 138.9019
0450 1419819824 138.0266
0451 1419822753 138.6651
0452 1419825683 139.6109
0453 1419828613 140.5889
0454 1419831542 139.1015
0455 1419834472 137.6380
0456 1419837402 137.6548
0457 1419840332 138.9720
0458 1419843261 140.0005
0459 1419846191 138.9914
0460 1419849121 138.8293
0461 1419852050 139.8250
0462 1419854980 141.4832
0463 1419857910 141.4056
0464 1419860839 141.6048
0465 1419863769 139.7156
0466 1419866699 142.6452
0467 1419869628 141.8382
0468 1419872558 142.5809
0469 1419875488 141.3172
0470 1419878417 141.7969
0471 1419881347 142.2187
0472 1419884277 140.9363
0473 1419887207 143.9635
0474 1419890136 142.5269
0475 1419893066 141.9499
0476 1419895996 144.5025
0477 1419898925 145.8725
0478 1419901855 145.7941
0479 1419904785 143.3513
0480 1419907714 145.0905
0481 1419910644 144.3954
0482 1419913574 145.1265
0483 1419916503 146.5420
0484 1419919433 146.0140
0485 1419922363 146.3403
0486 1419925292 148.1841
0487 1419928222 147.6188
0488 1419931152 145.9243
0489 1419934082 146.9609
0490 1419937011 148.0235
0491 1419939941 147.2422
0492 1419942871 147.8231
0493 1419945800 147.2197
0494 1419948730 148.9800
0495 1419951660 149.8623
0496 1419954589 150.6761
0497 1419957519 150.4552
0498 1419960449 149.4285
0499 1419963378 151.2329
0500 1419966308 150.3382
0501 1419969238 148.1144
0502 1419972167 152.5908
0503 1419975097 151.6245
0504 1419978027 152.2616
0505 1419980957 153.8134
0506 1419983886 155.8885
0507 1419986816 155.3855
0508 1419989746 157.0164
0509 1419992675 161.4616
0510 1419995605 167.1738
0511 1419998535 191.9405
0512 1420001464 242.9384
0513 1420004394 192.8875
0514 1420007324 169.3315
0515 1420010253 159.6126
0516 1420013183 159.4335
0517 1420016113 157.3699
0518 1420019042 156.2797
0519 1420021972 152.6071
0520 1420024902 153.3338
0521 1420027832 153.1962
0522 1420030761 152.4768
0523 1420033691 152.2240
0524 1420036621 151.0927
0525 1420039550 151.2099
0526 1420042480 151.9312
0527 1420045410 151.4480
0528 1420048339 150.4492
0529 1420051269 151.6780
0530 1420054199 149.0854
0531 1420057128 151.6476
0532 1420060058 150.5788
0533 1420062988 149.0542
0534 1420065917 152.1362
0535 1420068847 149.3417
0536 1420071777 150.1188
0537 1420074707 151.3441
0538 1420077636 149.1067
0539 1420080566 149.1695
0540 1420083496 151.5694
0541 1420086425 148.0768
0542 1420089355 149.5135
0543 1420092285 149.8507
0544 1420095214 150.4562
0545 1420098144 150.2973
0546 1420101074 147.0556
0547 1420104003 147.7966
0548 1420106933 148.0709
0549 1420109863 148.2228
0550 1420112792 148.0913
0551 1420115722 146.1246
0552 1420118652 146.7475
0553 1420121582 149.4492
0554 1420124511 147.4270
0555 1420127441 147.8944
0556 1420130371 148.7534
0557 1420133300 148.4437
0558 1420136230 147.6247
0559 1420139160 146.9228
0560 1420142089 147.8732
0561 1420145019 147.0393
0562 1420147949 146.6965
0563 1420150878 145.5892
0564 1420153808 148.0840
0565 1420156738 144.9164
0566 1420159667 146.4119
0567 1420162597 146.6519
0568 1420165527 147.5116
0569 1420168457 148.1019
0570 1420171386 146.4256
0571 1420174316 146.5535
0572 1420177246 147.3798
0573 1420180175 145.8360
0574 1420183105 145.9463
0575 1420186035 145.6428
0576 1420188964 146.4921
0577 1420191894 146.2129
0578 1420194824 145.2701
0579 1420197753 145.6934
0580 1420200683 143.7484
0581 1420203613 146.0111
0582 1420206542 144.5807
0583 1420209472 146.0334
0584 1420212402 144.1585
0585 1420215332 144.5178
0586 1420218261 147.0215
0587 1420221191 144.4713
0588 1420224121 147.6008
0589 1420227050 146.5676
0590 1420229980 145.6074
0591 1420232910 147.3357
0592 1420235839 146.6380
0593 1420238769 147.3048
0594 1420241699 147.2760
0595 1420244628 146.9566
0596 1420247558 148.4569
0597 1420250488 149.5098
0598 1420253417 149.3150
0599 1420256347 146.6858
0600 1420259277 146.6575
0601 1420262207 146.6251
0602 1420265136 146.9700
0603 1420268066 147.1405
0604 1420270996 148.3377
0605 1420273925 148.2357
0606 1420276855 149.6084
0607 1420279785 148.5060
0608 1420282714 149.7300
0609 1420285644 151.4287
0610 1420288574 150.8786
0611 1420291503 150.0749
0612 1420294433 151.6838
0613 1420297363 150.0926
0614 1420300292 152.0454
0615 1420303222 150.4559
0616 1420306152 148.9226
0617 1420309082 150.1395
0618 1420312011 147.9184
0619 1420314941 148.9685
0620 1420317871 150.6549
0621 1420320800 150.1801
0622 1420323730 149.6364
0623 1420326660 150.3773
0624 1420329589 148.1837
0625 1420332519 147.8572
0626 1420335449 148.8583
0627 1420338378 148.9917
0628 1420341308 150.1002
0629 1420344238 150.3710
0630 1420347167 149.1506
0631 1420350097 147.8951
0632 1420353027 148.6083
0633 1420355957 150.6469
0634 1420358886 147.7603
0635 1420361816 148.1473
0636 1420364746 147.7696
0637 1420367675 145.7150
0638 1420370605 145.7077
0639 1420373535 145.7459
0640 1420376464 146.9205
0641 1420379394 147.4760
0642 1420382324 146.8071
0643 1420385253 145.8253
0644 1420388183 145.5976
0645 1420391113 145.3965
0646 1420394042 145.8636
0647 1420396972 143.7084
0648 1420399902 145.8736
0649 1420402832 145.5719
0650 1420405761 144.8984
0651 1420408691 143.4368
0652 1420411621 143.5054
0653 1420414550 143.7967
0654 1420417480 145.5845
0655 1420420410 144.1116
0656 1420423339 142.3061
0657 1420426269 140.8126
0658 1420429199 141.7726
0659 1420432128 140.0248
0660 1420435058 141.0735
0661 1420437988 140.3093
0662 1420440917 141.2576
0663 1420443847 139.3729
0664 1420446777 137.0925
0665 1420449707 139.5790
0666 1420452636 139.2111
0667 1420455566 137.3139
0668 1420458496 137.6639
0669 1420461425 137.2495
0670 1420464355 135.0062
0671 1420467285 136.8763
0672 1420470214 136.2202
0673 1420473144 134.1209
0674 1420476074 135.5098
0675 1420479003 133.4942
0676 1420481933 134.8902
0677 1420484863 133.7012
0678 1420487792 132.7262
0679 1420490722 133.1902
0680 1420493652 132.8700
0681 1420496582 133.4639
0682 1420499511 133.9257
0683 1420502441 133.9122
0684 1420505371 132.9521
0685 1420508300 131.3562
0686 1420511230 132.8141
0687 1420514160 131.6361
0688 1420517089 131.5518
0689 1420520019 131.8477
0690 1420522949 132.5832
0691 1420525878 130.1813
0692 1420528808 130.3409
0693 1420531738 130.1185
0694 1420534667 130.1019
0695 1420537597 129.3646
0696 1420540527 130.9597
0697 1420543457 128.2873
0698 1420546386 128.6754
0699 1420549316 129.3272
0700 1420552246 128.4333
0701 1420555175 127.8646
0702 1420558105 127.2953
0703 1420561035 127.5472
0704 1420563964 128.2350
0705 1420566894 126.4437
0706 1420569824 127.2749
0707 1420572753 128.7270
0708 1420575683 125.0973
0709 1420578613 127.0432
0710 1420581542 127.2069
0711 1420584472 125.4086
0712 1420587402 126.3360
0713 1420590332 125.3488
0714 1420593261 127.1936
0715 1420596191 125.7812
0716 1420599121 125.1205
0717 1420602050 125.1975
0718 1420604980 126.6341
0719 1420607910 125.6281
0720 1420610839 124.8412
0721 1420613769 125.3574
0722 1420616699 125.8403
0723 1420619628 124.6762
0724 1420622558 124.8625
0725 1420625488 123.7875
0726 1420628417 124.8127
0727 1420631347 124.3985
0728 1420634277 123.1077
0729 1420637207 122.8730
0730 1420640136 121.8014
0731 1420643066 124.4652
0732 1420645996 126.4659
0733 1420648925 122.1684
0734 1420651855 123.4508
0735 1420654785 123.1016
0736 1420657714 123.2916
0737 1420660644 124.6406
0738 1420663574 122.0677
0739 1420666503 123.6679
0740 1420669433 124.8460
0741 1420672363 124.6937
0742 1420675292 125.0872
0743 1420678222 124.1367
0744 1420681152 121.1404
0745 1420684082 122.1670
0746 1420687011 122.5434
0747 1420689941 123.2498
0748 1420692871 124.0520
0749 1420695800 124.2224
0750 1420698730 122.4778
0751 1420701660 123.0221
0752 1420704589 120.2752
0753 1420707519 121.6276
0754 1420710449 119.4013
0755 1420713378 120.9056
0756 1420716308 121.6134
0757 1420719238 121.0653
0758 1420722167 123.6500
0759 1420725097 120.8487
0760 1420728027 122.1259
0761 1420730957 120.9373
0762 1420733886 121.1664
0763 1420736816 119.8478
0764 1420739746 120.1290
0765 1420742675 121.5512
0766 1420745605 119.7872
0767 1420748535 120.2283
0768 1420751464 120.8859
0769 1420754394 119.6450
0770 1420757324 120.2057
0771 1420760253 120.0791
0772 1420763183 120.0531
0773 1420766113 119.8485
0774 1420769042 120.5567
0775 1420771972 120.9938
0776 1420774902 120.1626
0777 1420777832 120.1586
0778 1420780761 119.7898
0779 1420783691 118.5104
0780 1420786621 119.1556
0781 1420789550 119.0345
0782 1420792480 120.2196
0783 1420795410 122.1571
0784 1420798339 119.9959
0785 1420801269 125.3944
0786 1420804199 123.7403
0787 1420807128 119.7387
0788 1420810058 119.9536
0789 1420812988 118.7494
0790 1420815917 117.5919
0791 1420818847 118.9883
0792 1420821777 118.0242
0793 1420824707 119.4237
0794 1420827636 117.2126
0795 1420830566 118.2133
0796 1420833496 117.1882
0797 1420836425 118.1155
0798 1420839355 117.4094
0799 1420842285 117.1456
0800 1420845214 117.1206
0801 1420848144 116.6102
0802 1420851074 115.5347
0803 1420854003 115.1385
0804 1420856933 115.5351
0805 1420859863 114.2500
0806 1420862792 115.8148
0807 1420865722 116.0835
0808 1420868652 116.3936
0809 1420871582 113.4824
0810 1420874511 113.9784
0811 1420877441 113.6628
0812 1420880371 113.4204
0813 1420883300 112.7127
0814 1420886230 113.3676
0815 1420889160 113.3219
0816 1420892089 110.7458
0817 1420895019 113.0722
0818 1420897949 113.8036
0819 1420900878 111.1591
0820 1420903808 111.5544
0821 1420906738 112.2877
0822 1420909667 112.2858
0823 1420912597 111.3502
0824 1420915527 110.0429
0825 1420918457 110.3097
0826 1420921386 111.2114
0827 1420924316 109.9912
0828 1420927246 110.7297
0829 1420930175 109.4125
0830 1420933105 107.9199
0831 1420936035 108.0330
0832 1420938964 108.1277
0833 1420941894 109.1607
0834 1420944824 107.6117
0835 1420947753 108.0555
0836 1420950683 108.9300
0837 1420953613 108.3595
0838 1420956542 105.2504
0839 1420959472 105.1926
0840 1420962402 105.2751
0841 1420965332 103.3302
0842 1420968261 103.7231
0843 1420971191 103.3916
0844 1420974121 103.4013
0845 1420977050 102.8308
0846 1420979980 104.3049
0847 1420982910 103.2119
0848 1420985839 102.5509
0849 1420988769 101.7604
0850 1420991699 101.7845
0851 1420994628 101.1605
0852 1420997558 100.0153
0853 1421000488 99.4513
0854 1421003417 99.2377
0855 1421006347 98.1297
0856 1421009277 96.8531
0857 1421012207 95.9544
0858 1421015136 96.9807
0859 1421018066 96.6175
0860 1421020996 96.0938
0861 1421023925 95.1760
0862 1421026855 94.6728
0863 1421029785 94.5003
0864 1421032714 94.5851
0865 1421035644 93.1727
0866 1421038574 92.5486
0867 1421041503 91.6149
0868 1421044433 92.0202
0869 1421047363 92.2363
0870 1421050292 90.4161
0871 1421053222 89.8323
0872 1421056152 88.5853
0873 1421059082 87.6939
0874 1421062011 88.6097
0875 1421064941 87.2119
0876 1421067871 87.2381
0877 1421070800 85.7448
0878 1421073730 85.8494
0879 1421076660 84.9914
0880 1421079589 84.6966
0881 1421082519 83.3115
0882 1421085449 82.5493
0883 1421088378 83.2739
0884 1421091308 82.4675
0885 1421094238 80.3891
0886 1421097167 80.4743
0887 1421100097 80.4098
0888 1421103027 79.1785
0889 1421105957 79.7271
0890 1421108886 78.4953
0891 1421111816 77.0710
0892 1421114746 76.5678
0893 1421117675 77.5341
0894 1421120605 75.1840
0895 1421123535 74.6394
0896 1421126464 73.3008
0897 1421129394 74.0170
0898 1421132324 72.9511
0899 1421135253 72.0873
0900 1421138183 71.5319
0901 1421141113 70.8049
0902 1421144042 70.0109
0903 1421146972 68.7304
0904 1421149902 69.0722
0905 1421152832 68.0596
0906 1421155761 67.8652
0907 1421158691 67.3715
0908 1421161621 65.8404
0909 1421164550 64.9505
0910 1421167480 65.0036
0911 1421170410 63.7187
0912 1421173339 63.8989
0913 1421176269 62.3938
0914 1421179199 62.2100
0915 1421182128 61.8985
0916 1421185058 60.5846
0917 1421187988 60.2405
0918 1421190917 59.0817
0919 1421193847 58.6041
0920 1421196777 57.9788
0921 1421199707 57.4308
0922 1421202636 57.5588
0923 1421205566 56.9820
0924 1421208496 56.2019
0925 1421211425 53.7562
0926 1421214355 54.0259
0927 1421217285 53.8598
0928 1421220214 52.7503
0929 1421223144 52.0736
0930 1421226074 51.5200
0931 1421229003 50.4503
0932 1421231933 50.0644
0933 1421234863 48.8616
0934 1421237792 48.5189
0935 1421240722 47.9983
0936 1421243652 47.2840
0937 1421246582 47.2514
0938 1421249511 46.7944
0939 1421252441 45.4829
0940 1421255371 45.0745
0941 1421258300 44.2800
0942 1421261230 44.2698
0943 1421264160 43.5002
0944 1421267089 42.1348
0945 1421270019 41.4694
0946 1421272949 41.1854
0947 1421275878 40.3764
0948 1421278808 39.7711
0949 1421281738 39.0840
0950 1421284667 39.1930
0951 1421287597 38.5548
0952 1421290527 37.7664
0953 1421293457 37.4611
0954 1421296386 36.8022
0955 1421299316 36.1126
0956 1421302246 35.5436
0957 1421305175 35.0765
0958 1421308105 34.2334
0959 1421311035 33.8530
0960 1421313964 33.2535
0961 1421316894 33.0024
0962 1421319824 32.3186
0963 1421322753 32.0249
0964 1421325683 31.0783
0965 1421328613 31.1676
0966 1421331542 30.7586
0967 1421334472 29.9014
0968 1421337402 29.6249
0969 1421340332 28.9420
0970 1421343261 28.6009
0971 1421346191 27.8918
0972 1421349121 27.7447
0973 1421352050 27.0033
0974 1421354980 26.7653
0975 1421357910 26.4241
0976 1421360839 26.0147
0977 1421363769 25.4146
0978 1421366699 25.1828
0979 1421369628 24.5967
0980 1421372558 24.2254
0981 1421375488 24.0170
0982 1421378417 23.5260
0983 1421381347 23.4391
0984 1421384277 22.5673
0985 1421387207 22.3619
0986 1421390136 22.1989
0987 1421393066 21.9493
0988 1421395996 21.4678
0989 1421398925 21.0658
0990 1421401855 20.8488
0991 1421404785 20.4563
0992 1421407714 20.1723
0993 1421410644 19.6017
0994 1421413574 19.5110
0995 1421416503 19.2202
0996 1421419433 19.3154
0997 1421422363 18.8997
0998 1421425292 18.6295
0999 1421428222 18.3357
1000 1421431152 18.0901
1001 1421434082 18.1830
1002 1421437011 17.7130
1003 1421439941 17.4238
1004 1421442871 17.2239
1005 1421445800 17.0785
1006 1421448730 16.9237
1007 1421451660 16.7112
1008 1421454589 16.7092
1009 1421457519 16.5603
1010 1421460449 16.0653
1011 1421463378 16.0967
1012 1421466308 16.1123
1013 1421469238 16.1058
1014 1421472167 15.9485
1015 1421475097 15.5072
1016 1421478027 15.4129
1017 1421480957 15.2013
1018 1421483886 15.3348
1019 1421486816 15.3843
1020 1421489746 15.1586
1021 1421492675 15.0519
1022 1421495605 15.1728
1023 1421498535 15.0116
