# File: 20-05-29T170906.ast
# NOTEA     = None Attached.  RTLSDR Dongle Test
# NOTEB     = Spectral Integration
# OBSERVER  = Science Aficionado
# DEVICE    = rtl=0,bias=1
# DATADIR   = ../data/
# SITE      = Small Metal Horn - NeSDR Test
# CITY      = Green Bank
# REGION    = West Virginia
# COUNTRY   = US
# TELTYPE   = Bubble Wrap  Horn
# FRAME     = TOPO
# GAIN1     = 40.0
# GAIN2     = 11.0
# GAIN3     = 11.0
# GAIN4     = 0.0
# Count     = 2500
# CenterFreq= 1420000000.0
# Bandwidth = 3000000.0
# Duration  = 21.857464
# DeltaX    = 5859.375
# TSYS      = 200.0
# TRX       = 100.0
# TRMS      = 2.0
# TINT      = 1.0
# KPERC     = 100.0
# GAINFACT  = 1.0
# BUNIT     = Counts
# NCHAN     = 1024
# NSPEC     = 1
# NTIME     = 0
# NSAMPLES  = 0
# EPEAK     = 4.10875183718
# ERMS      = 0.995973393526
# EMJD      = 58568.808999981004 
# REFCHAN   = 512.0
# REFSAMPL  = 256.0
# NAVE      = 50
# NMEDIAN   = 1024
# Fft_rate  = 5000
# UTC       = 2020-05-29 17:09:06.564651
# SECONDS   =       0.0000000000 
# LST       = 04:20:28.990
# AZ        = 180.0
# EL        = 90.0
# TELLON    = -79:50:22.920
# TELLAT    = +38:25:59.160
# RA        = 04:17:47.520
# DEC       = +38:20:17.400
# GALLON    = 161:22:25.30
# GALLAT    = -08:40:38.30
# ALT_SUN   = +73:15:03.1
# AZ_SUN    = +173:43:47.1
# ETAA      = 0.8
# ETAB      = 0.99
# POLANGLE  = 0.0
# TELSIZEAM = 1.0
# TELSIZEBM = 1.0
# AST_VERS  = 05.01
0000 1418501464 14.8548
0001 1418504394 14.8863
0002 1418507324 14.8063
0003 1418510253 14.8722
0004 1418513183 14.9372
0005 1418516113 14.7789
0006 1418519042 14.9796
0007 1418521972 15.1404
0008 1418524902 15.0404
0009 1418527832 15.1080
0010 1418530761 15.0731
0011 1418533691 15.0292
0012 1418536621 15.2134
0013 1418539550 15.2244
0014 1418542480 15.1948
0015 1418545410 15.3653
0016 1418548339 15.3623
0017 1418551269 15.5033
0018 1418554199 15.5474
0019 1418557128 15.8470
0020 1418560058 15.9657
0021 1418562988 16.2164
0022 1418565917 16.1957
0023 1418568847 16.0239
0024 1418571777 16.6482
0025 1418574707 16.8228
0026 1418577636 16.9101
0027 1418580566 17.0087
0028 1418583496 17.0835
0029 1418586425 17.1857
0030 1418589355 17.4475
0031 1418592285 17.9699
0032 1418595214 17.8520
0033 1418598144 18.1843
0034 1418601074 18.2626
0035 1418604003 18.3765
0036 1418606933 18.9482
0037 1418609863 19.1781
0038 1418612792 19.2988
0039 1418615722 19.8806
0040 1418618652 19.9874
0041 1418621582 20.3777
0042 1418624511 20.4486
0043 1418627441 20.8238
0044 1418630371 21.2329
0045 1418633300 21.5036
0046 1418636230 21.7015
0047 1418639160 22.3444
0048 1418642089 22.5028
0049 1418645019 22.6986
0050 1418647949 23.3784
0051 1418650878 23.4983
0052 1418653808 23.7246
0053 1418656738 23.8756
0054 1418659667 24.2345
0055 1418662597 24.5748
0056 1418665527 25.2887
0057 1418668457 25.8017
0058 1418671386 26.4019
0059 1418674316 26.4329
0060 1418677246 26.3510
0061 1418680175 26.9499
0062 1418683105 27.7784
0063 1418686035 28.0236
0064 1418688964 28.2417
0065 1418691894 28.8713
0066 1418694824 29.1822
0067 1418697753 29.4757
0068 1418700683 30.2855
0069 1418703613 30.7303
0070 1418706542 31.3223
0071 1418709472 31.1954
0072 1418712402 31.7997
0073 1418715332 32.4714
0074 1418718261 32.9835
0075 1418721191 33.3486
0076 1418724121 33.8075
0077 1418727050 34.5257
0078 1418729980 34.9140
0079 1418732910 35.0632
0080 1418735839 35.8050
0081 1418738769 36.4297
0082 1418741699 36.6077
0083 1418744628 37.2895
0084 1418747558 37.8880
0085 1418750488 37.9735
0086 1418753417 38.7773
0087 1418756347 39.9501
0088 1418759277 39.3162
0089 1418762207 40.6704
0090 1418765136 40.9183
0091 1418768066 41.6396
0092 1418770996 42.1657
0093 1418773925 42.8946
0094 1418776855 43.4878
0095 1418779785 43.1946
0096 1418782714 43.8792
0097 1418785644 45.0393
0098 1418788574 44.7450
0099 1418791503 46.1077
0100 1418794433 45.9890
0101 1418797363 47.3829
0102 1418800292 47.3826
0103 1418803222 48.0479
0104 1418806152 49.3219
0105 1418809082 49.1954
0106 1418812011 49.8186
0107 1418814941 50.1604
0108 1418817871 51.2777
0109 1418820800 51.6655
0110 1418823730 52.1298
0111 1418826660 52.6557
0112 1418829589 53.1704
0113 1418832519 54.7077
0114 1418835449 54.0213
0115 1418838378 55.0092
0116 1418841308 55.1652
0117 1418844238 55.8894
0118 1418847167 56.3570
0119 1418850097 57.2917
0120 1418853027 57.8606
0121 1418855957 58.4030
0122 1418858886 58.9547
0123 1418861816 59.5269
0124 1418864746 59.9090
0125 1418867675 60.4763
0126 1418870605 60.8192
0127 1418873535 62.1533
0128 1418876464 62.0462
0129 1418879394 62.5709
0130 1418882324 63.9035
0131 1418885253 63.8548
0132 1418888183 64.7997
0133 1418891113 64.9289
0134 1418894042 65.5887
0135 1418896972 65.7071
0136 1418899902 66.7654
0137 1418902832 67.7245
0138 1418905761 67.8592
0139 1418908691 68.3288
0140 1418911621 68.5161
0141 1418914550 68.4476
0142 1418917480 68.9162
0143 1418920410 70.0053
0144 1418923339 71.2645
0145 1418926269 71.7210
0146 1418929199 72.3038
0147 1418932128 72.7207
0148 1418935058 72.7537
0149 1418937988 74.3368
0150 1418940917 74.5840
0151 1418943847 74.1333
0152 1418946777 74.6440
0153 1418949707 76.2820
0154 1418952636 76.0863
0155 1418955566 76.9129
0156 1418958496 76.5821
0157 1418961425 78.8730
0158 1418964355 78.8030
0159 1418967285 78.4214
0160 1418970214 79.4447
0161 1418973144 80.4941
0162 1418976074 80.3497
0163 1418979003 80.6840
0164 1418981933 81.1097
0165 1418984863 81.3094
0166 1418987792 82.4059
0167 1418990722 82.0821
0168 1418993652 83.2971
0169 1418996582 84.0096
0170 1418999511 84.4162
0171 1419002441 84.1130
0172 1419005371 84.1174
0173 1419008300 84.2204
0174 1419011230 85.7883
0175 1419014160 86.7242
0176 1419017089 86.9631
0177 1419020019 87.4850
0178 1419022949 86.9131
0179 1419025878 88.0907
0180 1419028808 87.8430
0181 1419031738 87.7831
0182 1419034667 89.4409
0183 1419037597 88.7235
0184 1419040527 88.5985
0185 1419043457 90.0494
0186 1419046386 89.1953
0187 1419049316 89.8892
0188 1419052246 91.4499
0189 1419055175 91.9264
0190 1419058105 92.6262
0191 1419061035 92.8259
0192 1419063964 92.0846
0193 1419066894 93.3624
0194 1419069824 93.2707
0195 1419072753 93.6948
0196 1419075683 94.5614
0197 1419078613 92.8447
0198 1419081542 93.2756
0199 1419084472 92.4339
0200 1419087402 94.6284
0201 1419090332 95.1344
0202 1419093261 95.0806
0203 1419096191 96.5754
0204 1419099121 95.3974
0205 1419102050 94.7524
0206 1419104980 95.2441
0207 1419107910 95.7797
0208 1419110839 95.9917
0209 1419113769 98.5871
0210 1419116699 99.2103
0211 1419119628 97.2376
0212 1419122558 97.5689
0213 1419125488 99.2080
0214 1419128417 98.2412
0215 1419131347 99.4903
0216 1419134277 98.4410
0217 1419137207 99.3483
0218 1419140136 98.3319
0219 1419143066 98.2585
0220 1419145996 100.7224
0221 1419148925 101.4395
0222 1419151855 99.7859
0223 1419154785 100.9572
0224 1419157714 101.3769
0225 1419160644 100.4609
0226 1419163574 99.7762
0227 1419166503 101.4000
0228 1419169433 102.1141
0229 1419172363 100.5244
0230 1419175292 101.7294
0231 1419178222 100.5888
0232 1419181152 101.4313
0233 1419184082 102.1253
0234 1419187011 101.4865
0235 1419189941 101.7071
0236 1419192871 101.2798
0237 1419195800 102.2042
0238 1419198730 102.9466
0239 1419201660 101.8133
0240 1419204589 102.6708
0241 1419207519 103.0264
0242 1419210449 104.0802
0243 1419213378 102.9902
0244 1419216308 103.0189
0245 1419219238 102.4839
0246 1419222167 103.4104
0247 1419225097 104.4615
0248 1419228027 103.2280
0249 1419230957 104.4268
0250 1419233886 103.7142
0251 1419236816 104.0751
0252 1419239746 104.0795
0253 1419242675 103.7049
0254 1419245605 104.4487
0255 1419248535 105.4332
0256 1419251464 103.7138
0257 1419254394 105.3274
0258 1419257324 104.2963
0259 1419260253 105.2709
0260 1419263183 104.7446
0261 1419266113 104.6453
0262 1419269042 105.2390
0263 1419271972 104.4448
0264 1419274902 105.3509
0265 1419277832 105.2484
0266 1419280761 105.0632
0267 1419283691 105.1573
0268 1419286621 105.5685
0269 1419289550 104.7069
0270 1419292480 105.7877
0271 1419295410 106.3830
0272 1419298339 105.2343
0273 1419301269 106.4422
0274 1419304199 106.0352
0275 1419307128 105.2262
0276 1419310058 107.1201
0277 1419312988 105.2819
0278 1419315917 106.3936
0279 1419318847 105.1914
0280 1419321777 105.4721
0281 1419324707 105.9296
0282 1419327636 106.2396
0283 1419330566 106.8066
0284 1419333496 107.3606
0285 1419336425 107.2315
0286 1419339355 106.2258
0287 1419342285 106.4664
0288 1419345214 106.6946
0289 1419348144 106.8278
0290 1419351074 107.3323
0291 1419354003 106.3114
0292 1419356933 106.6482
0293 1419359863 106.9679
0294 1419362792 106.9560
0295 1419365722 107.2743
0296 1419368652 107.5368
0297 1419371582 108.3440
0298 1419374511 107.6120
0299 1419377441 108.7260
0300 1419380371 108.4345
0301 1419383300 107.8030
0302 1419386230 107.5068
0303 1419389160 108.2295
0304 1419392089 108.9566
0305 1419395019 109.1769
0306 1419397949 108.4807
0307 1419400878 109.2584
0308 1419403808 109.2996
0309 1419406738 108.7914
0310 1419409667 108.8424
0311 1419412597 108.9092
0312 1419415527 108.9905
0313 1419418457 107.2932
0314 1419421386 108.5942
0315 1419424316 108.5704
0316 1419427246 109.9079
0317 1419430175 108.6111
0318 1419433105 110.3427
0319 1419436035 111.2568
0320 1419438964 109.5414
0321 1419441894 108.8307
0322 1419444824 109.4830
0323 1419447753 110.4775
0324 1419450683 110.7547
0325 1419453613 110.3127
0326 1419456542 110.6275
0327 1419459472 109.3036
0328 1419462402 109.3897
0329 1419465332 110.3358
0330 1419468261 109.8716
0331 1419471191 110.4274
0332 1419474121 111.4967
0333 1419477050 111.2931
0334 1419479980 109.8762
0335 1419482910 111.7473
0336 1419485839 112.4007
0337 1419488769 111.2510
0338 1419491699 111.2551
0339 1419494628 112.2427
0340 1419497558 112.8486
0341 1419500488 112.5167
0342 1419503417 113.0302
0343 1419506347 113.0791
0344 1419509277 113.5629
0345 1419512207 113.6616
0346 1419515136 113.5734
0347 1419518066 114.0111
0348 1419520996 112.5685
0349 1419523925 113.2497
0350 1419526855 113.5724
0351 1419529785 113.4784
0352 1419532714 112.7006
0353 1419535644 114.4527
0354 1419538574 114.6193
0355 1419541503 113.5011
0356 1419544433 115.6422
0357 1419547363 114.8391
0358 1419550292 116.5454
0359 1419553222 115.3471
0360 1419556152 114.5922
0361 1419559082 115.0354
0362 1419562011 116.1049
0363 1419564941 115.2332
0364 1419567871 116.3764
0365 1419570800 116.4668
0366 1419573730 117.5539
0367 1419576660 117.6087
0368 1419579589 116.2878
0369 1419582519 117.5951
0370 1419585449 117.6672
0371 1419588378 117.7257
0372 1419591308 117.7750
0373 1419594238 117.7382
0374 1419597167 117.1401
0375 1419600097 120.0077
0376 1419603027 120.4269
0377 1419605957 119.4636
0378 1419608886 120.8545
0379 1419611816 119.7420
0380 1419614746 119.9065
0381 1419617675 121.7792
0382 1419620605 119.8532
0383 1419623535 120.0002
0384 1419626464 119.3450
0385 1419629394 121.5934
0386 1419632324 122.9108
0387 1419635253 121.3528
0388 1419638183 121.6431
0389 1419641113 121.4815
0390 1419644042 122.2855
0391 1419646972 124.0737
0392 1419649902 122.6026
0393 1419652832 121.8638
0394 1419655761 124.1754
0395 1419658691 126.3564
0396 1419661621 123.5740
0397 1419664550 124.2014
0398 1419667480 123.8738
0399 1419670410 124.2242
0400 1419673339 124.3408
0401 1419676269 124.5283
0402 1419679199 125.0499
0403 1419682128 124.4921
0404 1419685058 125.9761
0405 1419687988 125.7008
0406 1419690917 124.7987
0407 1419693847 127.0693
0408 1419696777 125.1417
0409 1419699707 126.6516
0410 1419702636 127.5029
0411 1419705566 127.0878
0412 1419708496 127.9363
0413 1419711425 128.0900
0414 1419714355 128.9437
0415 1419717285 129.1025
0416 1419720214 128.0267
0417 1419723144 131.1082
0418 1419726074 129.4758
0419 1419729003 131.0688
0420 1419731933 130.4135
0421 1419734863 129.4248
0422 1419737792 130.3442
0423 1419740722 129.7528
0424 1419743652 129.1144
0425 1419746582 131.5125
0426 1419749511 131.4871
0427 1419752441 131.6461
0428 1419755371 131.4704
0429 1419758300 132.0424
0430 1419761230 132.4379
0431 1419764160 133.9081
0432 1419767089 133.4636
0433 1419770019 134.2129
0434 1419772949 133.2109
0435 1419775878 133.5096
0436 1419778808 135.3731
0437 1419781738 134.1926
0438 1419784667 135.6174
0439 1419787597 137.1555
0440 1419790527 137.9729
0441 1419793457 136.5349
0442 1419796386 136.2941
0443 1419799316 136.7686
0444 1419802246 137.1555
0445 1419805175 137.4616
0446 1419808105 136.7891
0447 1419811035 136.8348
0448 1419813964 136.6507
0449 1419816894 138.9861
0450 1419819824 137.8015
0451 1419822753 137.9019
0452 1419825683 137.5034
0453 1419828613 137.4719
0454 1419831542 139.3045
0455 1419834472 139.1171
0456 1419837402 139.4811
0457 1419840332 138.9326
0458 1419843261 140.0516
0459 1419846191 138.5523
0460 1419849121 141.4865
0461 1419852050 140.9078
0462 1419854980 138.6740
0463 1419857910 140.4216
0464 1419860839 140.1850
0465 1419863769 139.9841
0466 1419866699 138.5234
0467 1419869628 140.5781
0468 1419872558 141.8456
0469 1419875488 144.4919
0470 1419878417 141.3654
0471 1419881347 141.3876
0472 1419884277 141.1781
0473 1419887207 142.9599
0474 1419890136 144.0891
0475 1419893066 145.0381
0476 1419895996 143.6801
0477 1419898925 143.9431
0478 1419901855 146.3408
0479 1419904785 145.9592
0480 1419907714 143.1302
0481 1419910644 144.9194
0482 1419913574 145.4499
0483 1419916503 144.5593
0484 1419919433 145.5354
0485 1419922363 146.2277
0486 1419925292 145.6911
0487 1419928222 145.0196
0488 1419931152 146.1596
0489 1419934082 147.7299
0490 1419937011 147.2597
0491 1419939941 148.2854
0492 1419942871 148.2234
0493 1419945800 148.4267
0494 1419948730 148.6259
0495 1419951660 148.0509
0496 1419954589 147.7763
0497 1419957519 149.0932
0498 1419960449 150.5506
0499 1419963378 149.5705
0500 1419966308 149.9589
0501 1419969238 149.6650
0502 1419972167 149.4026
0503 1419975097 150.9940
0504 1419978027 151.3746
0505 1419980957 151.4856
0506 1419983886 151.4546
0507 1419986816 154.2989
0508 1419989746 157.7634
0509 1419992675 161.8039
0510 1419995605 167.9792
0511 1419998535 193.2156
0512 1420001464 242.6031
0513 1420004394 194.5070
0514 1420007324 168.4924
0515 1420010253 161.5895
0516 1420013183 157.6734
0517 1420016113 156.5370
0518 1420019042 155.5588
0519 1420021972 153.2722
0520 1420024902 152.3255
0521 1420027832 154.1358
0522 1420030761 153.7663
0523 1420033691 150.5911
0524 1420036621 150.7899
0525 1420039550 150.3941
0526 1420042480 150.0699
0527 1420045410 148.7784
0528 1420048339 149.9824
0529 1420051269 151.6940
0530 1420054199 151.2535
0531 1420057128 150.7213
0532 1420060058 151.1262
0533 1420062988 150.3097
0534 1420065917 148.8190
0535 1420068847 149.9633
0536 1420071777 149.5259
0537 1420074707 147.8593
0538 1420077636 146.7853
0539 1420080566 148.9510
0540 1420083496 148.9152
0541 1420086425 148.9293
0542 1420089355 147.5530
0543 1420092285 147.7879
0544 1420095214 148.3182
0545 1420098144 148.4129
0546 1420101074 147.4067
0547 1420104003 150.1554
0548 1420106933 149.3712
0549 1420109863 146.5257
0550 1420112792 149.8453
0551 1420115722 145.0979
0552 1420118652 145.0877
0553 1420121582 145.6196
0554 1420124511 146.7820
0555 1420127441 148.9585
0556 1420130371 149.6418
0557 1420133300 146.1660
0558 1420136230 145.6121
0559 1420139160 146.3332
0560 1420142089 147.6049
0561 1420145019 146.4666
0562 1420147949 146.9231
0563 1420150878 148.4301
0564 1420153808 148.2089
0565 1420156738 144.7474
0566 1420159667 144.0681
0567 1420162597 146.5391
0568 1420165527 145.7224
0569 1420168457 145.6678
0570 1420171386 145.2823
0571 1420174316 145.5485
0572 1420177246 146.6684
0573 1420180175 148.2743
0574 1420183105 147.0572
0575 1420186035 145.7668
0576 1420188964 144.7377
0577 1420191894 143.8115
0578 1420194824 144.8875
0579 1420197753 145.1953
0580 1420200683 144.9077
0581 1420203613 145.7819
0582 1420206542 145.8088
0583 1420209472 147.3350
0584 1420212402 147.1001
0585 1420215332 145.7496
0586 1420218261 144.5494
0587 1420221191 147.0198
0588 1420224121 146.3577
0589 1420227050 147.5414
0590 1420229980 146.6841
0591 1420232910 145.6330
0592 1420235839 147.0406
0593 1420238769 145.0971
0594 1420241699 144.2664
0595 1420244628 147.5185
0596 1420247558 145.5166
0597 1420250488 147.5966
0598 1420253417 145.8951
0599 1420256347 148.1659
0600 1420259277 146.6789
0601 1420262207 146.3109
0602 1420265136 149.5464
0603 1420268066 149.0966
0604 1420270996 148.1398
0605 1420273925 147.3559
0606 1420276855 148.2714
0607 1420279785 149.8269
0608 1420282714 149.4716
0609 1420285644 149.9013
0610 1420288574 147.2677
0611 1420291503 149.3816
0612 1420294433 148.5629
0613 1420297363 150.9138
0614 1420300292 150.8296
0615 1420303222 151.5134
0616 1420306152 150.5565
0617 1420309082 148.9351
0618 1420312011 150.3025
0619 1420314941 149.6452
0620 1420317871 149.3046
0621 1420320800 151.6475
0622 1420323730 148.9582
0623 1420326660 148.0661
0624 1420329589 150.3526
0625 1420332519 149.8013
0626 1420335449 148.1142
0627 1420338378 149.8682
0628 1420341308 148.2500
0629 1420344238 148.3059
0630 1420347167 149.0094
0631 1420350097 147.9852
0632 1420353027 147.9692
0633 1420355957 147.8111
0634 1420358886 149.5292
0635 1420361816 147.7253
0636 1420364746 147.1818
0637 1420367675 147.5900
0638 1420370605 148.0035
0639 1420373535 146.4774
0640 1420376464 145.2931
0641 1420379394 147.1726
0642 1420382324 146.7298
0643 1420385253 145.4641
0644 1420388183 145.2280
0645 1420391113 143.0409
0646 1420394042 144.2407
0647 1420396972 146.5249
0648 1420399902 144.7667
0649 1420402832 143.4364
0650 1420405761 142.3049
0651 1420408691 142.4780
0652 1420411621 144.1138
0653 1420414550 145.0601
0654 1420417480 143.9442
0655 1420420410 143.5679
0656 1420423339 143.7968
0657 1420426269 141.3665
0658 1420429199 143.3364
0659 1420432128 142.2111
0660 1420435058 140.9424
0661 1420437988 138.6148
0662 1420440917 139.6977
0663 1420443847 138.3936
0664 1420446777 137.6881
0665 1420449707 138.9829
0666 1420452636 138.4236
0667 1420455566 136.8530
0668 1420458496 137.0378
0669 1420461425 137.3740
0670 1420464355 136.1694
0671 1420467285 135.5054
0672 1420470214 137.1133
0673 1420473144 133.2875
0674 1420476074 137.1616
0675 1420479003 135.7928
0676 1420481933 133.6152
0677 1420484863 134.4814
0678 1420487792 132.9212
0679 1420490722 134.7880
0680 1420493652 133.5511
0681 1420496582 133.8768
0682 1420499511 131.5360
0683 1420502441 130.8065
0684 1420505371 133.6298
0685 1420508300 131.2347
0686 1420511230 131.0287
0687 1420514160 131.9813
0688 1420517089 131.7156
0689 1420520019 129.4840
0690 1420522949 128.0724
0691 1420525878 128.2691
0692 1420528808 130.0796
0693 1420531738 131.1288
0694 1420534667 129.8672
0695 1420537597 129.0865
0696 1420540527 130.3381
0697 1420543457 128.6080
0698 1420546386 128.5467
0699 1420549316 127.3251
0700 1420552246 127.9618
0701 1420555175 128.3304
0702 1420558105 129.7508
0703 1420561035 128.1373
0704 1420563964 126.8661
0705 1420566894 127.4466
0706 1420569824 126.9139
0707 1420572753 128.2329
0708 1420575683 127.5495
0709 1420578613 128.2283
0710 1420581542 126.8344
0711 1420584472 124.6040
0712 1420587402 125.1244
0713 1420590332 127.3463
0714 1420593261 127.6159
0715 1420596191 125.9836
0716 1420599121 126.4064
0717 1420602050 125.4803
0718 1420604980 126.1524
0719 1420607910 124.8478
0720 1420610839 124.8840
0721 1420613769 124.5706
0722 1420616699 125.2200
0723 1420619628 124.8940
0724 1420622558 123.7353
0725 1420625488 124.4373
0726 1420628417 124.9143
0727 1420631347 125.3662
0728 1420634277 125.6853
0729 1420637207 123.4477
0730 1420640136 123.5103
0731 1420643066 123.3470
0732 1420645996 125.7463
0733 1420648925 124.0305
0734 1420651855 124.2711
0735 1420654785 124.2394
0736 1420657714 123.1403
0737 1420660644 123.6499
0738 1420663574 124.5878
0739 1420666503 122.6712
0740 1420669433 124.0798
0741 1420672363 122.5334
0742 1420675292 122.9445
0743 1420678222 123.9562
0744 1420681152 124.2953
0745 1420684082 123.3935
0746 1420687011 123.3322
0747 1420689941 123.8358
0748 1420692871 122.2122
0749 1420695800 122.7640
0750 1420698730 122.5759
0751 1420701660 121.0243
0752 1420704589 121.0642
0753 1420707519 123.0602
0754 1420710449 122.9604
0755 1420713378 122.2825
0756 1420716308 121.2865
0757 1420719238 121.8869
0758 1420722167 121.5997
0759 1420725097 121.6712
0760 1420728027 119.6792
0761 1420730957 121.4988
0762 1420733886 119.8839
0763 1420736816 119.8772
0764 1420739746 119.6507
0765 1420742675 122.1310
0766 1420745605 121.9712
0767 1420748535 120.7997
0768 1420751464 120.2475
0769 1420754394 120.6021
0770 1420757324 119.9630
0771 1420760253 122.3265
0772 1420763183 121.3640
0773 1420766113 120.1731
0774 1420769042 120.6781
0775 1420771972 119.6118
0776 1420774902 120.0731
0777 1420777832 119.4834
0778 1420780761 117.2315
0779 1420783691 120.3286
0780 1420786621 119.9088
0781 1420789550 119.4610
0782 1420792480 118.5326
0783 1420795410 119.3328
0784 1420798339 120.7313
0785 1420801269 126.4906
0786 1420804199 121.6017
0787 1420807128 119.2547
0788 1420810058 118.3006
0789 1420812988 119.7048
0790 1420815917 118.4849
0791 1420818847 117.7102
0792 1420821777 118.6301
0793 1420824707 117.7791
0794 1420827636 118.2173
0795 1420830566 116.5787
0796 1420833496 118.1439
0797 1420836425 116.5138
0798 1420839355 118.5027
0799 1420842285 117.1000
0800 1420845214 116.6289
0801 1420848144 116.5018
0802 1420851074 116.3770
0803 1420854003 116.1412
0804 1420856933 116.1175
0805 1420859863 114.7658
0806 1420862792 115.3719
0807 1420865722 114.7275
0808 1420868652 115.7066
0809 1420871582 114.2234
0810 1420874511 114.5507
0811 1420877441 115.4838
0812 1420880371 113.8009
0813 1420883300 113.6691
0814 1420886230 112.8259
0815 1420889160 112.7664
0816 1420892089 112.2299
0817 1420895019 112.7274
0818 1420897949 112.9983
0819 1420900878 113.1869
0820 1420903808 111.9666
0821 1420906738 112.4075
0822 1420909667 111.8049
0823 1420912597 111.7556
0824 1420915527 111.1168
0825 1420918457 110.2474
0826 1420921386 110.7940
0827 1420924316 109.3033
0828 1420927246 110.3797
0829 1420930175 109.1397
0830 1420933105 109.0018
0831 1420936035 108.6868
0832 1420938964 107.9665
0833 1420941894 107.8311
0834 1420944824 107.7001
0835 1420947753 106.3466
0836 1420950683 106.7492
0837 1420953613 107.0506
0838 1420956542 105.1898
0839 1420959472 105.7692
0840 1420962402 104.9626
0841 1420965332 105.5297
0842 1420968261 105.1447
0843 1420971191 103.4413
0844 1420974121 102.6882
0845 1420977050 104.4637
0846 1420979980 103.4432
0847 1420982910 101.8734
0848 1420985839 100.9411
0849 1420988769 101.2332
0850 1420991699 100.1148
0851 1420994628 100.7692
0852 1420997558 99.9078
0853 1421000488 99.6227
0854 1421003417 99.2536
0855 1421006347 97.2286
0856 1421009277 98.3951
0857 1421012207 96.5941
0858 1421015136 97.2400
0859 1421018066 96.8299
0860 1421020996 95.9529
0861 1421023925 96.1934
0862 1421026855 94.3793
0863 1421029785 93.8187
0864 1421032714 94.1229
0865 1421035644 92.6463
0866 1421038574 93.6845
0867 1421041503 91.5274
0868 1421044433 90.2998
0869 1421047363 90.7287
0870 1421050292 91.1071
0871 1421053222 89.8797
0872 1421056152 88.1177
0873 1421059082 88.5455
0874 1421062011 87.8308
0875 1421064941 87.6700
0876 1421067871 87.7787
0877 1421070800 86.0028
0878 1421073730 85.5362
0879 1421076660 84.5866
0880 1421079589 84.6454
0881 1421082519 83.9960
0882 1421085449 83.9529
0883 1421088378 81.9768
0884 1421091308 82.2990
0885 1421094238 82.2133
0886 1421097167 80.2394
0887 1421100097 79.5895
0888 1421103027 79.2169
0889 1421105957 78.2741
0890 1421108886 78.2161
0891 1421111816 77.9485
0892 1421114746 76.6045
0893 1421117675 76.7759
0894 1421120605 75.3002
0895 1421123535 75.4044
0896 1421126464 74.1051
0897 1421129394 72.9465
0898 1421132324 73.4308
0899 1421135253 71.7466
0900 1421138183 71.1273
0901 1421141113 70.2743
0902 1421144042 69.6440
0903 1421146972 69.2773
0904 1421149902 68.6280
0905 1421152832 68.1054
0906 1421155761 68.1055
0907 1421158691 67.3309
0908 1421161621 65.7418
0909 1421164550 65.6873
0910 1421167480 64.8189
0911 1421170410 65.2542
0912 1421173339 63.6030
0913 1421176269 63.1575
0914 1421179199 61.4724
0915 1421182128 62.1242
0916 1421185058 60.6499
0917 1421187988 59.4672
0918 1421190917 59.3555
0919 1421193847 58.8250
0920 1421196777 57.3132
0921 1421199707 56.8783
0922 1421202636 55.7453
0923 1421205566 55.6261
0924 1421208496 54.7683
0925 1421211425 55.0008
0926 1421214355 54.2138
0927 1421217285 53.6185
0928 1421220214 52.8466
0929 1421223144 51.8461
0930 1421226074 51.3428
0931 1421229003 50.6273
0932 1421231933 49.9773
0933 1421234863 49.0676
0934 1421237792 48.8767
0935 1421240722 48.0131
0936 1421243652 47.3427
0937 1421246582 46.3343
0938 1421249511 45.9927
0939 1421252441 45.2765
0940 1421255371 44.8086
0941 1421258300 44.0181
0942 1421261230 43.8892
0943 1421264160 42.7658
0944 1421267089 42.6547
0945 1421270019 41.3419
0946 1421272949 41.1046
0947 1421275878 40.4314
0948 1421278808 39.9351
0949 1421281738 39.0391
0950 1421284667 38.6921
0951 1421287597 37.9560
0952 1421290527 37.7569
0953 1421293457 37.1627
0954 1421296386 36.4692
0955 1421299316 35.4796
0956 1421302246 35.4348
0957 1421305175 35.1774
0958 1421308105 34.8452
0959 1421311035 33.8980
0960 1421313964 33.6474
0961 1421316894 32.9540
0962 1421319824 32.0618
0963 1421322753 32.0424
0964 1421325683 31.1678
0965 1421328613 30.9164
0966 1421331542 30.5770
0967 1421334472 29.6732
0968 1421337402 29.5688
0969 1421340332 28.9078
0970 1421343261 28.7870
0971 1421346191 27.8405
0972 1421349121 27.0911
0973 1421352050 27.1658
0974 1421354980 26.8384
0975 1421357910 26.6193
0976 1421360839 25.9106
0977 1421363769 25.7534
0978 1421366699 25.0481
0979 1421369628 24.6893
0980 1421372558 24.2242
0981 1421375488 23.9658
0982 1421378417 23.6115
0983 1421381347 22.9995
0984 1421384277 22.7247
0985 1421387207 22.2058
0986 1421390136 22.0532
0987 1421393066 21.4974
0988 1421395996 21.3779
0989 1421398925 20.9538
0990 1421401855 20.8660
0991 1421404785 20.4738
0992 1421407714 20.4635
0993 1421410644 19.8854
0994 1421413574 19.8350
0995 1421416503 19.2372
0996 1421419433 18.9624
0997 1421422363 18.8138
0998 1421425292 18.7766
0999 1421428222 18.3403
1000 1421431152 18.2788
1001 1421434082 18.0474
1002 1421437011 17.5967
1003 1421439941 17.3485
1004 1421442871 17.5018
1005 1421445800 16.9111
1006 1421448730 16.9792
1007 1421451660 16.6209
1008 1421454589 16.2977
1009 1421457519 16.2865
1010 1421460449 16.2661
1011 1421463378 15.9754
1012 1421466308 15.8504
1013 1421469238 15.8408
1014 1421472167 15.6783
1015 1421475097 15.4004
1016 1421478027 15.5442
1017 1421480957 15.6587
1018 1421483886 15.1519
1019 1421486816 15.2823
1020 1421489746 15.1690
1021 1421492675 15.2067
1022 1421495605 14.9347
1023 1421498535 14.6836
