# File: 20-05-29T170549.ast
# NOTEA     = None Attached.  RTLSDR Dongle Test
# NOTEB     = Spectral Integration
# OBSERVER  = Science Aficionado
# DEVICE    = rtl=0,bias=1
# DATADIR   = ../data/
# SITE      = Small Metal Horn - NeSDR Test
# CITY      = Green Bank
# REGION    = West Virginia
# COUNTRY   = US
# TELTYPE   = Bubble Wrap  Horn
# FRAME     = TOPO
# GAIN1     = 40.0
# GAIN2     = 11.0
# GAIN3     = 11.0
# GAIN4     = 0.0
# Count     = 2500
# CenterFreq= 1420000000.0
# Bandwidth = 3000000.0
# Duration  = 21.850198
# DeltaX    = 5859.375
# TSYS      = 200.0
# TRX       = 100.0
# TRMS      = 2.0
# TINT      = 1.0
# KPERC     = 100.0
# GAINFACT  = 1.0
# BUNIT     = Counts
# NCHAN     = 1024
# NSPEC     = 1
# NTIME     = 0
# NSAMPLES  = 0
# EPEAK     = 4.10875183718
# ERMS      = 0.995973393526
# EMJD      = 58568.808999981004 
# REFCHAN   = 512.0
# REFSAMPL  = 256.0
# NAVE      = 50
# NMEDIAN   = 1024
# Fft_rate  = 5000
# UTC       = 2020-05-29 17:05:49.958544
# SECONDS   =       0.0000000000 
# LST       = 04:17:11.850
# AZ        = 180.0
# EL        = 90.0
# TELLON    = -79:50:22.920
# TELLAT    = +38:25:59.160
# RA        = 04:14:30.640
# DEC       = +38:20:07.100
# GALLON    = 160:54:42.50
# GALLAT    = -09:07:51.40
# ALT_SUN   = +73:09:57.2
# AZ_SUN    = +171:06:48.1
# ETAA      = 0.8
# ETAB      = 0.99
# POLANGLE  = 0.0
# TELSIZEAM = 1.0
# TELSIZEBM = 1.0
# AST_VERS  = 05.01
0000 1418501464 14.9088
0001 1418504394 14.9662
0002 1418507324 15.0618
0003 1418510253 15.0063
0004 1418513183 15.1355
0005 1418516113 15.0454
0006 1418519042 15.1341
0007 1418521972 15.1275
0008 1418524902 15.1386
0009 1418527832 15.0146
0010 1418530761 15.0212
0011 1418533691 15.3007
0012 1418536621 15.3615
0013 1418539550 15.3492
0014 1418542480 15.2955
0015 1418545410 15.4536
0016 1418548339 15.6460
0017 1418551269 15.8590
0018 1418554199 15.9484
0019 1418557128 15.7928
0020 1418560058 16.0264
0021 1418562988 16.0388
0022 1418565917 16.2221
0023 1418568847 16.5178
0024 1418571777 16.5974
0025 1418574707 16.5800
0026 1418577636 16.8131
0027 1418580566 17.0438
0028 1418583496 17.1938
0029 1418586425 17.4982
0030 1418589355 17.7965
0031 1418592285 17.9033
0032 1418595214 18.1339
0033 1418598144 18.3834
0034 1418601074 19.0454
0035 1418604003 18.8665
0036 1418606933 19.3435
0037 1418609863 19.3227
0038 1418612792 19.5918
0039 1418615722 19.8295
0040 1418618652 20.1638
0041 1418621582 20.4993
0042 1418624511 20.6717
0043 1418627441 21.1359
0044 1418630371 21.3680
0045 1418633300 21.5143
0046 1418636230 21.5083
0047 1418639160 22.0309
0048 1418642089 22.8140
0049 1418645019 22.9291
0050 1418647949 23.2097
0051 1418650878 23.3591
0052 1418653808 23.9423
0053 1418656738 24.3041
0054 1418659667 24.9224
0055 1418662597 25.1857
0056 1418665527 25.3450
0057 1418668457 26.1098
0058 1418671386 26.6847
0059 1418674316 26.2822
0060 1418677246 26.8565
0061 1418680175 27.2068
0062 1418683105 27.4504
0063 1418686035 28.0750
0064 1418688964 28.5921
0065 1418691894 29.1892
0066 1418694824 29.5727
0067 1418697753 29.9234
0068 1418700683 30.6210
0069 1418703613 30.9965
0070 1418706542 31.2281
0071 1418709472 31.7292
0072 1418712402 32.6115
0073 1418715332 32.3605
0074 1418718261 32.9825
0075 1418721191 33.5615
0076 1418724121 33.8259
0077 1418727050 34.6421
0078 1418729980 34.8768
0079 1418732910 35.6026
0080 1418735839 36.0233
0081 1418738769 36.7466
0082 1418741699 37.1297
0083 1418744628 37.8011
0084 1418747558 38.1382
0085 1418750488 38.4405
0086 1418753417 39.4154
0087 1418756347 39.3300
0088 1418759277 40.3194
0089 1418762207 40.3749
0090 1418765136 41.1777
0091 1418768066 42.1410
0092 1418770996 42.7649
0093 1418773925 43.5427
0094 1418776855 42.8559
0095 1418779785 43.9601
0096 1418782714 44.3696
0097 1418785644 45.3779
0098 1418788574 45.6252
0099 1418791503 46.2692
0100 1418794433 46.7906
0101 1418797363 47.5538
0102 1418800292 48.1919
0103 1418803222 48.4270
0104 1418806152 48.9784
0105 1418809082 49.5576
0106 1418812011 49.7870
0107 1418814941 50.4023
0108 1418817871 51.8626
0109 1418820800 52.0359
0110 1418823730 53.0155
0111 1418826660 53.1001
0112 1418829589 54.1750
0113 1418832519 53.9719
0114 1418835449 54.6802
0115 1418838378 54.5893
0116 1418841308 56.0668
0117 1418844238 56.0501
0118 1418847167 57.2266
0119 1418850097 57.5674
0120 1418853027 58.1317
0121 1418855957 58.8992
0122 1418858886 60.2199
0123 1418861816 60.3094
0124 1418864746 60.3890
0125 1418867675 61.2104
0126 1418870605 62.0580
0127 1418873535 62.7434
0128 1418876464 61.4527
0129 1418879394 63.0212
0130 1418882324 63.5173
0131 1418885253 65.0707
0132 1418888183 65.1596
0133 1418891113 65.9060
0134 1418894042 66.9095
0135 1418896972 67.2218
0136 1418899902 67.3994
0137 1418902832 67.2995
0138 1418905761 68.3004
0139 1418908691 69.2686
0140 1418911621 69.3646
0141 1418914550 69.8306
0142 1418917480 69.8551
0143 1418920410 70.8232
0144 1418923339 70.8994
0145 1418926269 72.5660
0146 1418929199 72.6694
0147 1418932128 73.1082
0148 1418935058 72.9412
0149 1418937988 74.4375
0150 1418940917 73.5008
0151 1418943847 76.3652
0152 1418946777 76.2239
0153 1418949707 75.4121
0154 1418952636 76.3509
0155 1418955566 76.6587
0156 1418958496 77.4640
0157 1418961425 77.5335
0158 1418964355 78.5479
0159 1418967285 78.6442
0160 1418970214 78.5726
0161 1418973144 79.5809
0162 1418976074 81.0904
0163 1418979003 81.7863
0164 1418981933 80.7980
0165 1418984863 82.0617
0166 1418987792 82.4970
0167 1418990722 83.6318
0168 1418993652 82.9568
0169 1418996582 83.8230
0170 1418999511 84.3648
0171 1419002441 85.4912
0172 1419005371 86.1779
0173 1419008300 86.4801
0174 1419011230 86.0330
0175 1419014160 87.2143
0176 1419017089 86.4555
0177 1419020019 88.1356
0178 1419022949 87.7726
0179 1419025878 88.5890
0180 1419028808 88.9673
0181 1419031738 88.5078
0182 1419034667 88.4835
0183 1419037597 89.6436
0184 1419040527 90.3835
0185 1419043457 91.7687
0186 1419046386 90.7677
0187 1419049316 91.7747
0188 1419052246 91.0549
0189 1419055175 93.8594
0190 1419058105 92.5641
0191 1419061035 90.6448
0192 1419063964 92.1196
0193 1419066894 94.3806
0194 1419069824 94.0693
0195 1419072753 93.7263
0196 1419075683 93.7819
0197 1419078613 93.4958
0198 1419081542 94.3166
0199 1419084472 95.4952
0200 1419087402 95.2682
0201 1419090332 96.8808
0202 1419093261 95.6618
0203 1419096191 96.6603
0204 1419099121 96.2612
0205 1419102050 96.2694
0206 1419104980 96.9485
0207 1419107910 97.3404
0208 1419110839 97.1762
0209 1419113769 97.3891
0210 1419116699 99.0982
0211 1419119628 98.6656
0212 1419122558 98.5216
0213 1419125488 99.6827
0214 1419128417 99.6753
0215 1419131347 100.0988
0216 1419134277 99.0548
0217 1419137207 99.8848
0218 1419140136 101.0841
0219 1419143066 101.0747
0220 1419145996 100.5504
0221 1419148925 102.6155
0222 1419151855 101.4112
0223 1419154785 100.5489
0224 1419157714 102.1259
0225 1419160644 102.1650
0226 1419163574 100.6092
0227 1419166503 100.2500
0228 1419169433 101.5316
0229 1419172363 102.1535
0230 1419175292 102.7477
0231 1419178222 103.2452
0232 1419181152 102.7071
0233 1419184082 102.9449
0234 1419187011 103.0357
0235 1419189941 101.3170
0236 1419192871 102.3547
0237 1419195800 103.0681
0238 1419198730 102.6586
0239 1419201660 103.9811
0240 1419204589 104.1108
0241 1419207519 103.0020
0242 1419210449 103.2369
0243 1419213378 103.2715
0244 1419216308 104.4983
0245 1419219238 105.2880
0246 1419222167 103.5686
0247 1419225097 104.8077
0248 1419228027 104.4313
0249 1419230957 104.9548
0250 1419233886 106.1802
0251 1419236816 105.9416
0252 1419239746 105.3542
0253 1419242675 104.8876
0254 1419245605 103.4957
0255 1419248535 103.6552
0256 1419251464 104.3796
0257 1419254394 106.1379
0258 1419257324 107.3402
0259 1419260253 107.0502
0260 1419263183 105.0234
0261 1419266113 105.0595
0262 1419269042 105.9044
0263 1419271972 104.7452
0264 1419274902 104.3142
0265 1419277832 107.0008
0266 1419280761 107.6065
0267 1419283691 108.2447
0268 1419286621 106.2290
0269 1419289550 105.5754
0270 1419292480 104.8374
0271 1419295410 106.0191
0272 1419298339 105.9940
0273 1419301269 107.5914
0274 1419304199 108.0659
0275 1419307128 105.5792
0276 1419310058 107.0183
0277 1419312988 107.0673
0278 1419315917 106.7260
0279 1419318847 107.8815
0280 1419321777 107.2595
0281 1419324707 107.6864
0282 1419327636 108.0630
0283 1419330566 106.8725
0284 1419333496 108.4109
0285 1419336425 108.0741
0286 1419339355 108.1169
0287 1419342285 107.6493
0288 1419345214 106.6612
0289 1419348144 107.2763
0290 1419351074 107.5595
0291 1419354003 107.2910
0292 1419356933 108.8500
0293 1419359863 108.1307
0294 1419362792 108.6546
0295 1419365722 109.0284
0296 1419368652 107.8561
0297 1419371582 109.6280
0298 1419374511 108.0032
0299 1419377441 108.3840
0300 1419380371 108.4083
0301 1419383300 108.4979
0302 1419386230 110.1644
0303 1419389160 107.3370
0304 1419392089 107.9046
0305 1419395019 109.2157
0306 1419397949 109.8049
0307 1419400878 110.3228
0308 1419403808 110.4112
0309 1419406738 110.0655
0310 1419409667 109.4973
0311 1419412597 109.3736
0312 1419415527 109.7801
0313 1419418457 110.3631
0314 1419421386 109.1227
0315 1419424316 111.1736
0316 1419427246 110.6320
0317 1419430175 108.9100
0318 1419433105 110.2912
0319 1419436035 109.6485
0320 1419438964 110.2695
0321 1419441894 109.6233
0322 1419444824 110.7870
0323 1419447753 112.2507
0324 1419450683 111.2930
0325 1419453613 110.7323
0326 1419456542 112.0946
0327 1419459472 111.3506
0328 1419462402 112.9053
0329 1419465332 111.0848
0330 1419468261 110.2054
0331 1419471191 112.8955
0332 1419474121 112.5525
0333 1419477050 111.4577
0334 1419479980 112.7272
0335 1419482910 112.5425
0336 1419485839 111.0258
0337 1419488769 113.1099
0338 1419491699 113.1216
0339 1419494628 113.1558
0340 1419497558 113.6310
0341 1419500488 113.3376
0342 1419503417 112.0665
0343 1419506347 113.4160
0344 1419509277 112.3888
0345 1419512207 111.1549
0346 1419515136 114.4982
0347 1419518066 114.1461
0348 1419520996 114.3334
0349 1419523925 113.4293
0350 1419526855 115.1010
0351 1419529785 115.3121
0352 1419532714 113.9107
0353 1419535644 114.0434
0354 1419538574 115.8532
0355 1419541503 115.9582
0356 1419544433 114.8673
0357 1419547363 115.3867
0358 1419550292 117.2581
0359 1419553222 117.4368
0360 1419556152 115.8318
0361 1419559082 116.8690
0362 1419562011 115.8930
0363 1419564941 117.1095
0364 1419567871 116.6837
0365 1419570800 117.7138
0366 1419573730 117.2713
0367 1419576660 117.9519
0368 1419579589 118.1165
0369 1419582519 119.0548
0370 1419585449 118.1569
0371 1419588378 118.6254
0372 1419591308 117.6729
0373 1419594238 120.1155
0374 1419597167 119.2266
0375 1419600097 120.3447
0376 1419603027 122.0023
0377 1419605957 119.8775
0378 1419608886 119.9046
0379 1419611816 122.0847
0380 1419614746 121.7292
0381 1419617675 120.6196
0382 1419620605 121.7811
0383 1419623535 120.9665
0384 1419626464 121.9844
0385 1419629394 121.5308
0386 1419632324 122.2060
0387 1419635253 123.6306
0388 1419638183 123.6738
0389 1419641113 124.5970
0390 1419644042 124.5357
0391 1419646972 122.0441
0392 1419649902 124.4094
0393 1419652832 124.5262
0394 1419655761 127.5749
0395 1419658691 127.1928
0396 1419661621 126.8654
0397 1419664550 125.5147
0398 1419667480 124.3829
0399 1419670410 125.4340
0400 1419673339 125.6172
0401 1419676269 126.1651
0402 1419679199 125.9337
0403 1419682128 125.3618
0404 1419685058 128.6236
0405 1419687988 128.5409
0406 1419690917 128.2289
0407 1419693847 128.4450
0408 1419696777 127.1086
0409 1419699707 129.5650
0410 1419702636 128.8226
0411 1419705566 127.9759
0412 1419708496 128.5013
0413 1419711425 130.5672
0414 1419714355 129.2767
0415 1419717285 131.6383
0416 1419720214 130.1205
0417 1419723144 131.0239
0418 1419726074 131.2407
0419 1419729003 130.5667
0420 1419731933 130.5769
0421 1419734863 130.0282
0422 1419737792 130.8721
0423 1419740722 130.9241
0424 1419743652 131.0039
0425 1419746582 132.1813
0426 1419749511 131.3362
0427 1419752441 131.6999
0428 1419755371 132.1793
0429 1419758300 132.4595
0430 1419761230 133.2999
0431 1419764160 133.7323
0432 1419767089 135.8023
0433 1419770019 135.1332
0434 1419772949 133.7848
0435 1419775878 135.5597
0436 1419778808 136.3915
0437 1419781738 136.5778
0438 1419784667 136.5744
0439 1419787597 136.4281
0440 1419790527 137.1541
0441 1419793457 134.7776
0442 1419796386 136.9173
0443 1419799316 138.0101
0444 1419802246 136.7401
0445 1419805175 137.6775
0446 1419808105 137.8640
0447 1419811035 139.1379
0448 1419813964 138.5790
0449 1419816894 138.3038
0450 1419819824 137.6590
0451 1419822753 139.8453
0452 1419825683 138.4540
0453 1419828613 139.7312
0454 1419831542 138.6071
0455 1419834472 138.7063
0456 1419837402 139.9570
0457 1419840332 140.8043
0458 1419843261 139.7204
0459 1419846191 139.9131
0460 1419849121 140.8605
0461 1419852050 141.6076
0462 1419854980 143.0493
0463 1419857910 140.3450
0464 1419860839 141.7121
0465 1419863769 139.2332
0466 1419866699 143.1818
0467 1419869628 147.2187
0468 1419872558 141.9680
0469 1419875488 142.5388
0470 1419878417 143.1735
0471 1419881347 143.5784
0472 1419884277 145.3591
0473 1419887207 143.9254
0474 1419890136 143.2301
0475 1419893066 143.2538
0476 1419895996 144.4018
0477 1419898925 145.2051
0478 1419901855 145.0698
0479 1419904785 145.8724
0480 1419907714 146.7654
0481 1419910644 147.2777
0482 1419913574 147.6985
0483 1419916503 148.2436
0484 1419919433 146.9302
0485 1419922363 147.3312
0486 1419925292 148.5600
0487 1419928222 148.9152
0488 1419931152 149.1904
0489 1419934082 149.0653
0490 1419937011 147.9335
0491 1419939941 148.6501
0492 1419942871 149.8803
0493 1419945800 148.8744
0494 1419948730 151.8286
0495 1419951660 150.2728
0496 1419954589 150.9482
0497 1419957519 149.6280
0498 1419960449 151.8383
0499 1419963378 151.2029
0500 1419966308 152.5535
0501 1419969238 151.8039
0502 1419972167 150.7530
0503 1419975097 151.6954
0504 1419978027 152.5095
0505 1419980957 154.5318
0506 1419983886 155.1567
0507 1419986816 157.2529
0508 1419989746 160.1053
0509 1419992675 163.3800
0510 1419995605 167.7016
0511 1419998535 192.8355
0512 1420001464 244.2959
0513 1420004394 192.2826
0514 1420007324 167.3181
0515 1420010253 160.0245
0516 1420013183 158.6311
0517 1420016113 158.7406
0518 1420019042 156.1247
0519 1420021972 156.0344
0520 1420024902 154.2578
0521 1420027832 154.4258
0522 1420030761 152.9824
0523 1420033691 154.9773
0524 1420036621 152.4881
0525 1420039550 152.8183
0526 1420042480 152.1060
0527 1420045410 150.9022
0528 1420048339 153.4499
0529 1420051269 151.5316
0530 1420054199 151.6222
0531 1420057128 151.8863
0532 1420060058 150.5594
0533 1420062988 150.5171
0534 1420065917 150.0128
0535 1420068847 151.3183
0536 1420071777 151.9701
0537 1420074707 150.6177
0538 1420077636 151.7277
0539 1420080566 150.3151
0540 1420083496 150.2212
0541 1420086425 150.0984
0542 1420089355 149.9123
0543 1420092285 149.4502
0544 1420095214 147.8238
0545 1420098144 150.3580
0546 1420101074 150.3849
0547 1420104003 148.9250
0548 1420106933 146.9450
0549 1420109863 148.1505
0550 1420112792 148.3092
0551 1420115722 148.5741
0552 1420118652 148.0360
0553 1420121582 149.3985
0554 1420124511 149.6118
0555 1420127441 148.4621
0556 1420130371 148.8433
0557 1420133300 147.6916
0558 1420136230 148.2124
0559 1420139160 148.5230
0560 1420142089 146.5004
0561 1420145019 146.8338
0562 1420147949 146.8983
0563 1420150878 149.8884
0564 1420153808 148.9871
0565 1420156738 148.3873
0566 1420159667 147.8758
0567 1420162597 144.1326
0568 1420165527 146.6313
0569 1420168457 147.1983
0570 1420171386 148.6439
0571 1420174316 146.0289
0572 1420177246 145.4211
0573 1420180175 145.9643
0574 1420183105 144.4901
0575 1420186035 146.9475
0576 1420188964 146.7742
0577 1420191894 146.6429
0578 1420194824 147.5803
0579 1420197753 149.1041
0580 1420200683 147.1636
0581 1420203613 144.8870
0582 1420206542 147.1611
0583 1420209472 145.6981
0584 1420212402 146.4861
0585 1420215332 146.5585
0586 1420218261 146.0668
0587 1420221191 145.7386
0588 1420224121 145.8722
0589 1420227050 145.1672
0590 1420229980 145.2495
0591 1420232910 147.4113
0592 1420235839 148.3696
0593 1420238769 147.5261
0594 1420241699 147.6931
0595 1420244628 146.5499
0596 1420247558 148.8790
0597 1420250488 145.6570
0598 1420253417 147.9178
0599 1420256347 149.3717
0600 1420259277 149.3838
0601 1420262207 149.7193
0602 1420265136 148.6823
0603 1420268066 148.1994
0604 1420270996 148.4244
0605 1420273925 147.2013
0606 1420276855 149.9425
0607 1420279785 149.0485
0608 1420282714 148.7025
0609 1420285644 150.7757
0610 1420288574 152.5615
0611 1420291503 151.8576
0612 1420294433 152.0364
0613 1420297363 151.9391
0614 1420300292 151.7401
0615 1420303222 149.6841
0616 1420306152 150.8626
0617 1420309082 152.4037
0618 1420312011 149.3247
0619 1420314941 151.5148
0620 1420317871 150.1379
0621 1420320800 150.9616
0622 1420323730 151.7568
0623 1420326660 152.6294
0624 1420329589 150.0588
0625 1420332519 152.2925
0626 1420335449 151.0101
0627 1420338378 151.2383
0628 1420341308 151.4893
0629 1420344238 153.3492
0630 1420347167 152.7391
0631 1420350097 149.5960
0632 1420353027 149.4067
0633 1420355957 148.4369
0634 1420358886 148.8588
0635 1420361816 148.3024
0636 1420364746 150.7098
0637 1420367675 146.7493
0638 1420370605 145.7460
0639 1420373535 147.5679
0640 1420376464 148.4218
0641 1420379394 147.7593
0642 1420382324 148.2870
0643 1420385253 148.3876
0644 1420388183 145.8132
0645 1420391113 144.8678
0646 1420394042 146.0341
0647 1420396972 146.3559
0648 1420399902 144.2661
0649 1420402832 144.9358
0650 1420405761 145.4220
0651 1420408691 145.4642
0652 1420411621 144.5053
0653 1420414550 142.8969
0654 1420417480 142.9780
0655 1420420410 144.4209
0656 1420423339 143.5199
0657 1420426269 143.3468
0658 1420429199 143.0561
0659 1420432128 141.7503
0660 1420435058 141.4498
0661 1420437988 141.4242
0662 1420440917 140.3259
0663 1420443847 141.3559
0664 1420446777 140.0910
0665 1420449707 139.4703
0666 1420452636 139.3387
0667 1420455566 139.9752
0668 1420458496 138.0811
0669 1420461425 138.9795
0670 1420464355 140.2753
0671 1420467285 136.5118
0672 1420470214 134.6137
0673 1420473144 137.7909
0674 1420476074 136.0143
0675 1420479003 136.0471
0676 1420481933 137.4906
0677 1420484863 137.2987
0678 1420487792 133.8627
0679 1420490722 134.3530
0680 1420493652 134.7332
0681 1420496582 133.4201
0682 1420499511 135.1206
0683 1420502441 131.9138
0684 1420505371 131.1910
0685 1420508300 133.6890
0686 1420511230 132.1838
0687 1420514160 133.2822
0688 1420517089 132.3988
0689 1420520019 133.2384
0690 1420522949 130.6045
0691 1420525878 130.9259
0692 1420528808 131.4697
0693 1420531738 132.3226
0694 1420534667 131.6162
0695 1420537597 130.8851
0696 1420540527 130.2718
0697 1420543457 130.2806
0698 1420546386 131.5536
0699 1420549316 130.2970
0700 1420552246 128.4992
0701 1420555175 126.5492
0702 1420558105 128.3369
0703 1420561035 127.5455
0704 1420563964 127.5900
0705 1420566894 128.7518
0706 1420569824 127.7351
0707 1420572753 127.6476
0708 1420575683 127.7580
0709 1420578613 126.4999
0710 1420581542 128.2145
0711 1420584472 126.0512
0712 1420587402 127.0653
0713 1420590332 126.2500
0714 1420593261 126.5462
0715 1420596191 126.6043
0716 1420599121 126.5443
0717 1420602050 125.5749
0718 1420604980 127.0976
0719 1420607910 126.9042
0720 1420610839 126.3952
0721 1420613769 126.1992
0722 1420616699 125.1108
0723 1420619628 125.9539
0724 1420622558 126.2086
0725 1420625488 125.3997
0726 1420628417 125.5139
0727 1420631347 124.1673
0728 1420634277 125.2668
0729 1420637207 127.4140
0730 1420640136 125.7428
0731 1420643066 126.2218
0732 1420645996 125.3106
0733 1420648925 126.1830
0734 1420651855 125.3364
0735 1420654785 124.3407
0736 1420657714 124.7635
0737 1420660644 124.2355
0738 1420663574 124.9806
0739 1420666503 125.5533
0740 1420669433 124.3540
0741 1420672363 124.4673
0742 1420675292 125.4491
0743 1420678222 123.1347
0744 1420681152 124.8142
0745 1420684082 124.5364
0746 1420687011 124.0154
0747 1420689941 122.4343
0748 1420692871 123.3769
0749 1420695800 123.8431
0750 1420698730 124.3755
0751 1420701660 124.9916
0752 1420704589 121.8248
0753 1420707519 122.7027
0754 1420710449 122.5641
0755 1420713378 122.8970
0756 1420716308 123.6488
0757 1420719238 124.3067
0758 1420722167 124.0330
0759 1420725097 122.0968
0760 1420728027 123.3102
0761 1420730957 121.5613
0762 1420733886 123.0160
0763 1420736816 123.4914
0764 1420739746 121.0896
0765 1420742675 122.9064
0766 1420745605 122.0837
0767 1420748535 122.7545
0768 1420751464 123.6503
0769 1420754394 122.5094
0770 1420757324 121.5695
0771 1420760253 119.8373
0772 1420763183 120.5187
0773 1420766113 123.0481
0774 1420769042 122.4604
0775 1420771972 121.9306
0776 1420774902 121.0465
0777 1420777832 122.2198
0778 1420780761 121.7065
0779 1420783691 120.9256
0780 1420786621 121.5946
0781 1420789550 120.5051
0782 1420792480 119.8250
0783 1420795410 120.8517
0784 1420798339 122.2186
0785 1420801269 128.8184
0786 1420804199 122.9777
0787 1420807128 120.2284
0788 1420810058 119.4116
0789 1420812988 117.7145
0790 1420815917 119.7746
0791 1420818847 120.1233
0792 1420821777 120.3556
0793 1420824707 118.5907
0794 1420827636 119.9847
0795 1420830566 119.3956
0796 1420833496 119.2290
0797 1420836425 117.3306
0798 1420839355 118.5995
0799 1420842285 117.2848
0800 1420845214 117.0420
0801 1420848144 118.6144
0802 1420851074 116.7226
0803 1420854003 118.8334
0804 1420856933 118.0072
0805 1420859863 116.0253
0806 1420862792 116.5939
0807 1420865722 116.8131
0808 1420868652 116.5793
0809 1420871582 116.8394
0810 1420874511 114.9401
0811 1420877441 114.7558
0812 1420880371 114.4290
0813 1420883300 114.2514
0814 1420886230 114.7244
0815 1420889160 114.7078
0816 1420892089 113.4023
0817 1420895019 114.8917
0818 1420897949 112.1969
0819 1420900878 115.1216
0820 1420903808 114.5954
0821 1420906738 112.6730
0822 1420909667 112.3256
0823 1420912597 113.0313
0824 1420915527 112.3075
0825 1420918457 111.8197
0826 1420921386 110.3398
0827 1420924316 111.7905
0828 1420927246 111.1689
0829 1420930175 109.0954
0830 1420933105 110.9251
0831 1420936035 109.5776
0832 1420938964 107.9700
0833 1420941894 107.8769
0834 1420944824 108.2483
0835 1420947753 108.8670
0836 1420950683 109.0443
0837 1420953613 108.3528
0838 1420956542 107.4314
0839 1420959472 106.7856
0840 1420962402 106.3055
0841 1420965332 105.1598
0842 1420968261 105.1004
0843 1420971191 106.2581
0844 1420974121 105.1796
0845 1420977050 103.8540
0846 1420979980 103.3620
0847 1420982910 103.0735
0848 1420985839 102.4738
0849 1420988769 101.5542
0850 1420991699 102.2428
0851 1420994628 100.3189
0852 1420997558 101.0704
0853 1421000488 100.0701
0854 1421003417 99.6027
0855 1421006347 99.2158
0856 1421009277 99.1626
0857 1421012207 99.6586
0858 1421015136 97.8011
0859 1421018066 98.3332
0860 1421020996 97.3176
0861 1421023925 95.7268
0862 1421026855 95.9186
0863 1421029785 95.5700
0864 1421032714 94.3983
0865 1421035644 94.9596
0866 1421038574 94.4093
0867 1421041503 92.8788
0868 1421044433 91.5412
0869 1421047363 92.0278
0870 1421050292 92.3175
0871 1421053222 89.4853
0872 1421056152 88.8563
0873 1421059082 90.6224
0874 1421062011 89.4179
0875 1421064941 87.8408
0876 1421067871 88.1401
0877 1421070800 87.0086
0878 1421073730 87.5808
0879 1421076660 87.0574
0880 1421079589 86.6901
0881 1421082519 83.8013
0882 1421085449 83.2813
0883 1421088378 83.7602
0884 1421091308 81.7449
0885 1421094238 81.3440
0886 1421097167 80.2153
0887 1421100097 80.4069
0888 1421103027 81.2130
0889 1421105957 79.7201
0890 1421108886 78.3160
0891 1421111816 78.0086
0892 1421114746 76.8344
0893 1421117675 77.0053
0894 1421120605 75.2595
0895 1421123535 75.4717
0896 1421126464 74.4803
0897 1421129394 74.3195
0898 1421132324 72.9648
0899 1421135253 72.1146
0900 1421138183 72.5962
0901 1421141113 71.9925
0902 1421144042 71.2195
0903 1421146972 69.1182
0904 1421149902 69.0537
0905 1421152832 68.4343
0906 1421155761 68.2053
0907 1421158691 67.7988
0908 1421161621 66.7513
0909 1421164550 67.2190
0910 1421167480 65.5277
0911 1421170410 64.7891
0912 1421173339 64.0230
0913 1421176269 62.7650
0914 1421179199 62.9424
0915 1421182128 61.9108
0916 1421185058 61.5936
0917 1421187988 60.3842
0918 1421190917 59.6756
0919 1421193847 59.2860
0920 1421196777 58.4423
0921 1421199707 57.9698
0922 1421202636 56.9445
0923 1421205566 55.8465
0924 1421208496 56.3144
0925 1421211425 54.9835
0926 1421214355 55.4719
0927 1421217285 54.5944
0928 1421220214 54.0475
0929 1421223144 52.5524
0930 1421226074 51.6040
0931 1421229003 51.2767
0932 1421231933 50.2305
0933 1421234863 49.6824
0934 1421237792 48.7232
0935 1421240722 48.2891
0936 1421243652 48.4376
0937 1421246582 46.7981
0938 1421249511 46.3522
0939 1421252441 45.6283
0940 1421255371 45.4815
0941 1421258300 44.7828
0942 1421261230 44.2850
0943 1421264160 43.6942
0944 1421267089 42.9761
0945 1421270019 42.6186
0946 1421272949 41.6541
0947 1421275878 41.4060
0948 1421278808 40.2958
0949 1421281738 39.5630
0950 1421284667 39.2324
0951 1421287597 38.6204
0952 1421290527 38.0252
0953 1421293457 37.6833
0954 1421296386 37.0028
0955 1421299316 36.0557
0956 1421302246 36.0048
0957 1421305175 35.4510
0958 1421308105 35.0318
0959 1421311035 34.0778
0960 1421313964 33.8480
0961 1421316894 33.4169
0962 1421319824 32.9738
0963 1421322753 31.9189
0964 1421325683 31.8173
0965 1421328613 31.1956
0966 1421331542 31.0056
0967 1421334472 30.4910
0968 1421337402 30.2153
0969 1421340332 29.5815
0970 1421343261 28.7202
0971 1421346191 28.1981
0972 1421349121 27.8353
0973 1421352050 27.4983
0974 1421354980 27.0905
0975 1421357910 26.4326
0976 1421360839 26.0335
0977 1421363769 25.9241
0978 1421366699 25.5886
0979 1421369628 24.7114
0980 1421372558 24.4042
0981 1421375488 24.6261
0982 1421378417 23.8281
0983 1421381347 23.4699
0984 1421384277 23.1383
0985 1421387207 22.7021
0986 1421390136 22.4673
0987 1421393066 22.0162
0988 1421395996 21.5299
0989 1421398925 21.3863
0990 1421401855 21.1135
0991 1421404785 20.7606
0992 1421407714 20.6242
0993 1421410644 20.3500
0994 1421413574 19.9238
0995 1421416503 19.7442
0996 1421419433 19.1208
0997 1421422363 18.9391
0998 1421425292 18.8872
0999 1421428222 18.5917
1000 1421431152 18.0758
1001 1421434082 17.8948
1002 1421437011 17.6962
1003 1421439941 17.7300
1004 1421442871 17.4457
1005 1421445800 17.2057
1006 1421448730 17.0014
1007 1421451660 16.8351
1008 1421454589 16.6040
1009 1421457519 16.5383
1010 1421460449 16.1969
1011 1421463378 16.1035
1012 1421466308 16.0210
1013 1421469238 16.0886
1014 1421472167 15.7402
1015 1421475097 15.8156
1016 1421478027 15.7029
1017 1421480957 15.5769
1018 1421483886 15.4697
1019 1421486816 15.4982
1020 1421489746 15.4491
1021 1421492675 15.2507
1022 1421495605 15.1100
1023 1421498535 14.9651
