# File: 20-05-29T170528.ast
# NOTEA     = None Attached.  RTLSDR Dongle Test
# NOTEB     = Spectral Integration
# OBSERVER  = Science Aficionado
# DEVICE    = rtl=0,bias=1
# DATADIR   = ../data/
# SITE      = Small Metal Horn - NeSDR Test
# CITY      = Green Bank
# REGION    = West Virginia
# COUNTRY   = US
# TELTYPE   = Bubble Wrap  Horn
# FRAME     = TOPO
# GAIN1     = 40.0
# GAIN2     = 11.0
# GAIN3     = 11.0
# GAIN4     = 0.0
# Count     = 2500
# CenterFreq= 1420000000.0
# Bandwidth = 3000000.0
# Duration  = 21.837038
# DeltaX    = 5859.375
# TSYS      = 200.0
# TRX       = 100.0
# TRMS      = 2.0
# TINT      = 1.0
# KPERC     = 100.0
# GAINFACT  = 1.0
# BUNIT     = Counts
# NCHAN     = 1024
# NSPEC     = 1
# NTIME     = 0
# NSAMPLES  = 0
# EPEAK     = 4.10875183718
# ERMS      = 0.995973393526
# EMJD      = 58568.808999981004 
# REFCHAN   = 512.0
# REFSAMPL  = 256.0
# NAVE      = 50
# NMEDIAN   = 1024
# Fft_rate  = 5000
# UTC       = 2020-05-29 17:05:28.114926
# SECONDS   =       0.0000000000 
# LST       = 04:16:49.940
# AZ        = 180.0
# EL        = 90.0
# TELLON    = -79:50:22.920
# TELLAT    = +38:25:59.160
# RA        = 04:14:08.770
# DEC       = +38:20:05.900
# GALLON    = 160:51:36.60
# GALLAT    = -09:10:51.80
# ALT_SUN   = +73:09:16.8
# AZ_SUN    = +170:49:27.3
# ETAA      = 0.8
# ETAB      = 0.99
# POLANGLE  = 0.0
# TELSIZEAM = 1.0
# TELSIZEBM = 1.0
# AST_VERS  = 05.01
0000 1418501464 14.9256
0001 1418504394 15.0948
0002 1418507324 15.0534
0003 1418510253 15.1561
0004 1418513183 15.0542
0005 1418516113 15.2042
0006 1418519042 14.8461
0007 1418521972 15.0644
0008 1418524902 15.0041
0009 1418527832 15.1406
0010 1418530761 15.1314
0011 1418533691 15.0708
0012 1418536621 15.1725
0013 1418539550 15.3136
0014 1418542480 15.5400
0015 1418545410 15.6273
0016 1418548339 15.7430
0017 1418551269 15.8148
0018 1418554199 15.8088
0019 1418557128 15.8923
0020 1418560058 16.0039
0021 1418562988 16.1009
0022 1418565917 16.2531
0023 1418568847 16.3404
0024 1418571777 16.5453
0025 1418574707 16.6192
0026 1418577636 17.0343
0027 1418580566 16.8688
0028 1418583496 17.3336
0029 1418586425 17.6062
0030 1418589355 17.7411
0031 1418592285 17.7696
0032 1418595214 18.1720
0033 1418598144 18.3061
0034 1418601074 18.5019
0035 1418604003 18.7648
0036 1418606933 19.0499
0037 1418609863 19.2659
0038 1418612792 19.3632
0039 1418615722 19.7410
0040 1418618652 20.0987
0041 1418621582 20.3228
0042 1418624511 20.6880
0043 1418627441 21.1700
0044 1418630371 21.2440
0045 1418633300 21.6996
0046 1418636230 22.2113
0047 1418639160 22.2192
0048 1418642089 22.7155
0049 1418645019 22.8805
0050 1418647949 23.4593
0051 1418650878 23.7598
0052 1418653808 23.8465
0053 1418656738 24.0316
0054 1418659667 24.8508
0055 1418662597 24.7240
0056 1418665527 25.3144
0057 1418668457 25.6831
0058 1418671386 25.9127
0059 1418674316 26.5349
0060 1418677246 26.9675
0061 1418680175 27.2471
0062 1418683105 27.5487
0063 1418686035 28.0185
0064 1418688964 28.2519
0065 1418691894 29.0038
0066 1418694824 29.3964
0067 1418697753 29.6656
0068 1418700683 30.4937
0069 1418703613 30.8511
0070 1418706542 31.2711
0071 1418709472 31.4559
0072 1418712402 31.8399
0073 1418715332 32.5475
0074 1418718261 32.8920
0075 1418721191 33.2955
0076 1418724121 33.7134
0077 1418727050 34.4427
0078 1418729980 35.1382
0079 1418732910 35.7636
0080 1418735839 36.0842
0081 1418738769 37.0712
0082 1418741699 36.8089
0083 1418744628 37.6023
0084 1418747558 37.8474
0085 1418750488 38.4150
0086 1418753417 39.0769
0087 1418756347 39.2967
0088 1418759277 39.7899
0089 1418762207 40.2696
0090 1418765136 41.5185
0091 1418768066 41.6439
0092 1418770996 42.7019
0093 1418773925 43.2932
0094 1418776855 43.7527
0095 1418779785 43.8831
0096 1418782714 44.2704
0097 1418785644 44.5211
0098 1418788574 45.3659
0099 1418791503 45.9477
0100 1418794433 46.8313
0101 1418797363 47.1561
0102 1418800292 47.6394
0103 1418803222 49.1572
0104 1418806152 49.3543
0105 1418809082 49.1995
0106 1418812011 49.7718
0107 1418814941 51.0511
0108 1418817871 51.9502
0109 1418820800 51.0837
0110 1418823730 52.6018
0111 1418826660 52.8179
0112 1418829589 53.1102
0113 1418832519 53.9879
0114 1418835449 54.6869
0115 1418838378 55.1737
0116 1418841308 54.9636
0117 1418844238 56.2484
0118 1418847167 56.5000
0119 1418850097 56.8253
0120 1418853027 58.7505
0121 1418855957 59.0181
0122 1418858886 59.7961
0123 1418861816 59.4811
0124 1418864746 60.4056
0125 1418867675 60.7179
0126 1418870605 61.5739
0127 1418873535 62.3007
0128 1418876464 62.4924
0129 1418879394 62.9812
0130 1418882324 64.0036
0131 1418885253 65.1464
0132 1418888183 64.4720
0133 1418891113 65.3665
0134 1418894042 66.3371
0135 1418896972 67.1974
0136 1418899902 66.6036
0137 1418902832 67.5177
0138 1418905761 68.5374
0139 1418908691 69.3309
0140 1418911621 69.1167
0141 1418914550 71.0731
0142 1418917480 70.2737
0143 1418920410 71.0553
0144 1418923339 72.1490
0145 1418926269 72.0006
0146 1418929199 72.0490
0147 1418932128 72.7510
0148 1418935058 73.4407
0149 1418937988 73.1962
0150 1418940917 74.6496
0151 1418943847 76.0119
0152 1418946777 77.1231
0153 1418949707 76.5817
0154 1418952636 77.0758
0155 1418955566 77.9289
0156 1418958496 79.3672
0157 1418961425 77.7070
0158 1418964355 78.2678
0159 1418967285 80.3356
0160 1418970214 79.1063
0161 1418973144 79.2958
0162 1418976074 80.1550
0163 1418979003 80.1789
0164 1418981933 81.5434
0165 1418984863 81.8658
0166 1418987792 82.7322
0167 1418990722 83.2095
0168 1418993652 82.2912
0169 1418996582 83.3222
0170 1418999511 83.7522
0171 1419002441 84.3739
0172 1419005371 84.7221
0173 1419008300 84.4843
0174 1419011230 86.1312
0175 1419014160 85.7994
0176 1419017089 86.2485
0177 1419020019 87.0154
0178 1419022949 86.8626
0179 1419025878 88.0228
0180 1419028808 88.1651
0181 1419031738 87.8422
0182 1419034667 87.2921
0183 1419037597 88.5316
0184 1419040527 90.2356
0185 1419043457 91.0272
0186 1419046386 90.9517
0187 1419049316 90.6842
0188 1419052246 90.9687
0189 1419055175 91.3072
0190 1419058105 93.5035
0191 1419061035 92.7089
0192 1419063964 92.9310
0193 1419066894 93.9242
0194 1419069824 93.3996
0195 1419072753 93.2512
0196 1419075683 93.4059
0197 1419078613 94.2700
0198 1419081542 93.6310
0199 1419084472 94.5068
0200 1419087402 95.7955
0201 1419090332 95.3543
0202 1419093261 95.8536
0203 1419096191 96.2468
0204 1419099121 95.5259
0205 1419102050 96.1290
0206 1419104980 96.4809
0207 1419107910 96.8020
0208 1419110839 96.1031
0209 1419113769 96.8916
0210 1419116699 98.1117
0211 1419119628 99.4080
0212 1419122558 98.6801
0213 1419125488 98.8633
0214 1419128417 98.8143
0215 1419131347 98.2636
0216 1419134277 99.4867
0217 1419137207 101.8161
0218 1419140136 100.0715
0219 1419143066 101.1509
0220 1419145996 99.2451
0221 1419148925 101.7404
0222 1419151855 100.5715
0223 1419154785 101.7966
0224 1419157714 102.6575
0225 1419160644 101.3438
0226 1419163574 101.9848
0227 1419166503 101.6111
0228 1419169433 101.1044
0229 1419172363 101.7260
0230 1419175292 102.8892
0231 1419178222 103.1848
0232 1419181152 103.6215
0233 1419184082 102.7596
0234 1419187011 102.9387
0235 1419189941 103.7240
0236 1419192871 103.2841
0237 1419195800 103.3640
0238 1419198730 103.9686
0239 1419201660 103.7204
0240 1419204589 103.0753
0241 1419207519 103.2452
0242 1419210449 103.4519
0243 1419213378 103.8432
0244 1419216308 103.3639
0245 1419219238 103.1589
0246 1419222167 103.5409
0247 1419225097 104.9437
0248 1419228027 104.3640
0249 1419230957 103.2957
0250 1419233886 103.5016
0251 1419236816 106.6290
0252 1419239746 104.8457
0253 1419242675 105.8635
0254 1419245605 104.7061
0255 1419248535 105.4587
0256 1419251464 105.1010
0257 1419254394 106.0272
0258 1419257324 105.0499
0259 1419260253 105.1105
0260 1419263183 104.6630
0261 1419266113 106.6370
0262 1419269042 105.7031
0263 1419271972 103.9408
0264 1419274902 106.4645
0265 1419277832 106.9445
0266 1419280761 106.0935
0267 1419283691 107.1464
0268 1419286621 105.9624
0269 1419289550 106.6417
0270 1419292480 106.9565
0271 1419295410 108.2919
0272 1419298339 106.2089
0273 1419301269 107.1905
0274 1419304199 106.7820
0275 1419307128 106.0858
0276 1419310058 105.6782
0277 1419312988 107.4774
0278 1419315917 107.0690
0279 1419318847 106.5858
0280 1419321777 105.2977
0281 1419324707 106.1706
0282 1419327636 105.8987
0283 1419330566 108.3235
0284 1419333496 108.7207
0285 1419336425 107.2346
0286 1419339355 107.0725
0287 1419342285 106.8716
0288 1419345214 107.9788
0289 1419348144 108.0254
0290 1419351074 106.5178
0291 1419354003 107.3590
0292 1419356933 107.7098
0293 1419359863 108.7362
0294 1419362792 108.3889
0295 1419365722 107.9307
0296 1419368652 109.3503
0297 1419371582 109.5825
0298 1419374511 108.3195
0299 1419377441 109.2696
0300 1419380371 109.1394
0301 1419383300 110.2122
0302 1419386230 108.2389
0303 1419389160 109.1056
0304 1419392089 109.0578
0305 1419395019 108.8274
0306 1419397949 108.8032
0307 1419400878 110.0421
0308 1419403808 109.4724
0309 1419406738 108.9095
0310 1419409667 110.5744
0311 1419412597 108.7490
0312 1419415527 107.8067
0313 1419418457 109.2705
0314 1419421386 110.2049
0315 1419424316 108.6546
0316 1419427246 110.5633
0317 1419430175 110.0994
0318 1419433105 111.6801
0319 1419436035 109.5225
0320 1419438964 111.8406
0321 1419441894 111.4438
0322 1419444824 112.2167
0323 1419447753 111.2092
0324 1419450683 110.4165
0325 1419453613 111.7637
0326 1419456542 113.3192
0327 1419459472 112.0120
0328 1419462402 112.3000
0329 1419465332 111.8587
0330 1419468261 112.3031
0331 1419471191 112.1412
0332 1419474121 112.8202
0333 1419477050 113.5088
0334 1419479980 112.4933
0335 1419482910 111.1608
0336 1419485839 112.2815
0337 1419488769 112.3973
0338 1419491699 113.1131
0339 1419494628 113.1667
0340 1419497558 111.0329
0341 1419500488 111.3892
0342 1419503417 112.9193
0343 1419506347 113.4876
0344 1419509277 113.4143
0345 1419512207 113.1550
0346 1419515136 114.5927
0347 1419518066 114.9773
0348 1419520996 114.1436
0349 1419523925 116.5689
0350 1419526855 116.1075
0351 1419529785 115.7627
0352 1419532714 115.9034
0353 1419535644 116.4015
0354 1419538574 116.3945
0355 1419541503 116.3458
0356 1419544433 116.7355
0357 1419547363 115.3616
0358 1419550292 115.9032
0359 1419553222 116.5895
0360 1419556152 117.3781
0361 1419559082 116.8318
0362 1419562011 117.6555
0363 1419564941 117.8490
0364 1419567871 117.0150
0365 1419570800 117.9434
0366 1419573730 117.4276
0367 1419576660 119.1052
0368 1419579589 118.0400
0369 1419582519 117.8468
0370 1419585449 119.3919
0371 1419588378 119.4319
0372 1419591308 117.4691
0373 1419594238 118.4678
0374 1419597167 118.9174
0375 1419600097 119.3075
0376 1419603027 119.9333
0377 1419605957 121.6313
0378 1419608886 119.9948
0379 1419611816 120.7080
0380 1419614746 121.5716
0381 1419617675 120.0201
0382 1419620605 122.7429
0383 1419623535 122.9523
0384 1419626464 120.6256
0385 1419629394 122.5160
0386 1419632324 123.4239
0387 1419635253 122.5252
0388 1419638183 122.1924
0389 1419641113 123.2851
0390 1419644042 122.4851
0391 1419646972 124.3179
0392 1419649902 123.6902
0393 1419652832 125.0470
0394 1419655761 127.7477
0395 1419658691 127.3474
0396 1419661621 127.1488
0397 1419664550 124.3943
0398 1419667480 126.0184
0399 1419670410 126.1252
0400 1419673339 125.6502
0401 1419676269 125.8161
0402 1419679199 125.9291
0403 1419682128 125.3967
0404 1419685058 127.1384
0405 1419687988 126.8478
0406 1419690917 127.1830
0407 1419693847 126.7522
0408 1419696777 127.3047
0409 1419699707 129.2066
0410 1419702636 128.2643
0411 1419705566 129.7583
0412 1419708496 129.0888
0413 1419711425 131.7461
0414 1419714355 128.9943
0415 1419717285 128.1696
0416 1419720214 130.0419
0417 1419723144 130.1776
0418 1419726074 129.7233
0419 1419729003 131.1817
0420 1419731933 132.9463
0421 1419734863 131.0138
0422 1419737792 130.1941
0423 1419740722 129.7843
0424 1419743652 133.3887
0425 1419746582 131.9497
0426 1419749511 131.9738
0427 1419752441 133.7095
0428 1419755371 133.1867
0429 1419758300 132.9114
0430 1419761230 133.8724
0431 1419764160 135.3120
0432 1419767089 133.7640
0433 1419770019 133.8362
0434 1419772949 135.4714
0435 1419775878 134.9725
0436 1419778808 136.1071
0437 1419781738 136.5295
0438 1419784667 136.0429
0439 1419787597 137.4133
0440 1419790527 136.3652
0441 1419793457 135.5491
0442 1419796386 137.3516
0443 1419799316 137.1022
0444 1419802246 138.4403
0445 1419805175 136.7118
0446 1419808105 139.2963
0447 1419811035 137.8325
0448 1419813964 139.4853
0449 1419816894 140.5033
0450 1419819824 139.5592
0451 1419822753 140.0473
0452 1419825683 138.1302
0453 1419828613 140.4650
0454 1419831542 140.1567
0455 1419834472 139.8697
0456 1419837402 139.6469
0457 1419840332 139.1716
0458 1419843261 140.5535
0459 1419846191 140.7436
0460 1419849121 139.6600
0461 1419852050 139.7306
0462 1419854980 141.7812
0463 1419857910 141.3659
0464 1419860839 141.1603
0465 1419863769 143.3452
0466 1419866699 144.1741
0467 1419869628 143.9105
0468 1419872558 143.6968
0469 1419875488 141.4580
0470 1419878417 143.3049
0471 1419881347 144.9271
0472 1419884277 145.5608
0473 1419887207 143.9923
0474 1419890136 142.8544
0475 1419893066 142.9895
0476 1419895996 145.0437
0477 1419898925 147.3374
0478 1419901855 144.6077
0479 1419904785 144.6385
0480 1419907714 144.6881
0481 1419910644 145.4365
0482 1419913574 146.3236
0483 1419916503 146.2020
0484 1419919433 147.6394
0485 1419922363 149.4077
0486 1419925292 146.7812
0487 1419928222 148.1706
0488 1419931152 148.6489
0489 1419934082 149.9675
0490 1419937011 147.6583
0491 1419939941 148.9487
0492 1419942871 148.9463
0493 1419945800 148.9465
0494 1419948730 149.5472
0495 1419951660 149.8795
0496 1419954589 146.6275
0497 1419957519 150.4986
0498 1419960449 150.6753
0499 1419963378 150.1035
0500 1419966308 153.6938
0501 1419969238 151.5942
0502 1419972167 151.9549
0503 1419975097 152.4221
0504 1419978027 154.3665
0505 1419980957 154.1180
0506 1419983886 155.9520
0507 1419986816 157.8089
0508 1419989746 159.4168
0509 1419992675 162.5856
0510 1419995605 166.4194
0511 1419998535 195.9181
0512 1420001464 246.7775
0513 1420004394 192.6870
0514 1420007324 166.5140
0515 1420010253 162.5615
0516 1420013183 161.2087
0517 1420016113 158.3086
0518 1420019042 154.4539
0519 1420021972 154.5161
0520 1420024902 154.5772
0521 1420027832 153.9295
0522 1420030761 153.5195
0523 1420033691 152.3845
0524 1420036621 153.3749
0525 1420039550 151.1910
0526 1420042480 152.9491
0527 1420045410 151.5677
0528 1420048339 150.8201
0529 1420051269 151.4932
0530 1420054199 149.4698
0531 1420057128 151.2110
0532 1420060058 151.5827
0533 1420062988 151.8952
0534 1420065917 151.3018
0535 1420068847 151.0231
0536 1420071777 149.8572
0537 1420074707 150.7976
0538 1420077636 149.9931
0539 1420080566 149.8035
0540 1420083496 150.1998
0541 1420086425 150.1484
0542 1420089355 150.7764
0543 1420092285 149.5203
0544 1420095214 150.1281
0545 1420098144 151.6697
0546 1420101074 150.7929
0547 1420104003 150.3439
0548 1420106933 149.5426
0549 1420109863 147.5356
0550 1420112792 148.8042
0551 1420115722 146.3857
0552 1420118652 148.5496
0553 1420121582 147.6052
0554 1420124511 147.5136
0555 1420127441 147.6181
0556 1420130371 148.4938
0557 1420133300 148.0388
0558 1420136230 147.4792
0559 1420139160 147.6516
0560 1420142089 146.3427
0561 1420145019 146.6259
0562 1420147949 146.7752
0563 1420150878 145.2880
0564 1420153808 148.2440
0565 1420156738 147.7862
0566 1420159667 146.9648
0567 1420162597 147.9685
0568 1420165527 147.9632
0569 1420168457 147.4815
0570 1420171386 146.2834
0571 1420174316 145.6707
0572 1420177246 146.2038
0573 1420180175 144.3772
0574 1420183105 146.4449
0575 1420186035 146.2369
0576 1420188964 145.2729
0577 1420191894 145.8916
0578 1420194824 148.9229
0579 1420197753 147.7200
0580 1420200683 146.8586
0581 1420203613 146.5734
0582 1420206542 147.1600
0583 1420209472 142.3400
0584 1420212402 148.2064
0585 1420215332 149.0230
0586 1420218261 146.6059
0587 1420221191 145.9976
0588 1420224121 147.5228
0589 1420227050 147.9460
0590 1420229980 146.4918
0591 1420232910 147.7957
0592 1420235839 147.9976
0593 1420238769 148.2921
0594 1420241699 147.6833
0595 1420244628 146.1532
0596 1420247558 148.2972
0597 1420250488 148.8350
0598 1420253417 146.6924
0599 1420256347 146.8215
0600 1420259277 146.7311
0601 1420262207 147.7800
0602 1420265136 149.1673
0603 1420268066 147.6425
0604 1420270996 147.3062
0605 1420273925 148.0736
0606 1420276855 148.1686
0607 1420279785 149.4132
0608 1420282714 148.7325
0609 1420285644 147.0315
0610 1420288574 150.6843
0611 1420291503 150.4399
0612 1420294433 151.5567
0613 1420297363 150.4584
0614 1420300292 151.6119
0615 1420303222 152.7913
0616 1420306152 151.1155
0617 1420309082 149.5239
0618 1420312011 151.9449
0619 1420314941 152.7376
0620 1420317871 150.0053
0621 1420320800 151.5419
0622 1420323730 151.7304
0623 1420326660 151.1706
0624 1420329589 151.4806
0625 1420332519 150.2048
0626 1420335449 150.5640
0627 1420338378 150.9521
0628 1420341308 151.2180
0629 1420344238 150.4686
0630 1420347167 147.9137
0631 1420350097 151.0169
0632 1420353027 149.0271
0633 1420355957 150.4580
0634 1420358886 149.8583
0635 1420361816 148.5580
0636 1420364746 147.0099
0637 1420367675 148.4086
0638 1420370605 149.5919
0639 1420373535 149.1044
0640 1420376464 147.9481
0641 1420379394 146.8576
0642 1420382324 146.0892
0643 1420385253 147.5217
0644 1420388183 146.7518
0645 1420391113 146.8945
0646 1420394042 145.9506
0647 1420396972 145.6922
0648 1420399902 145.4503
0649 1420402832 146.9836
0650 1420405761 145.3956
0651 1420408691 146.5273
0652 1420411621 145.2517
0653 1420414550 143.2910
0654 1420417480 142.2703
0655 1420420410 142.9310
0656 1420423339 142.6763
0657 1420426269 144.2904
0658 1420429199 143.2190
0659 1420432128 142.0463
0660 1420435058 143.0519
0661 1420437988 144.1907
0662 1420440917 143.0590
0663 1420443847 140.5595
0664 1420446777 139.7617
0665 1420449707 138.7796
0666 1420452636 139.6358
0667 1420455566 137.9241
0668 1420458496 138.5481
0669 1420461425 139.4059
0670 1420464355 140.1084
0671 1420467285 139.0460
0672 1420470214 136.8581
0673 1420473144 135.8887
0674 1420476074 136.9229
0675 1420479003 133.8797
0676 1420481933 135.5826
0677 1420484863 134.7129
0678 1420487792 135.9125
0679 1420490722 135.7694
0680 1420493652 134.7113
0681 1420496582 134.7918
0682 1420499511 134.3928
0683 1420502441 132.9179
0684 1420505371 132.6556
0685 1420508300 132.3941
0686 1420511230 134.8048
0687 1420514160 131.9043
0688 1420517089 133.7644
0689 1420520019 132.7207
0690 1420522949 131.2112
0691 1420525878 131.5465
0692 1420528808 130.2676
0693 1420531738 131.1428
0694 1420534667 128.4644
0695 1420537597 129.3951
0696 1420540527 129.0710
0697 1420543457 128.9293
0698 1420546386 129.1785
0699 1420549316 129.1839
0700 1420552246 128.7057
0701 1420555175 128.7002
0702 1420558105 128.4632
0703 1420561035 128.1645
0704 1420563964 129.0231
0705 1420566894 128.6880
0706 1420569824 127.0784
0707 1420572753 128.4166
0708 1420575683 127.4005
0709 1420578613 126.9069
0710 1420581542 126.7920
0711 1420584472 125.2914
0712 1420587402 127.6490
0713 1420590332 127.3151
0714 1420593261 126.0411
0715 1420596191 126.6264
0716 1420599121 126.3720
0717 1420602050 126.6154
0718 1420604980 126.8267
0719 1420607910 125.5164
0720 1420610839 126.6891
0721 1420613769 125.2952
0722 1420616699 124.9922
0723 1420619628 125.9094
0724 1420622558 124.7270
0725 1420625488 124.4221
0726 1420628417 125.2592
0727 1420631347 124.5463
0728 1420634277 124.6832
0729 1420637207 124.9357
0730 1420640136 124.8636
0731 1420643066 126.0028
0732 1420645996 124.9890
0733 1420648925 124.5478
0734 1420651855 124.4570
0735 1420654785 125.8642
0736 1420657714 124.0910
0737 1420660644 123.5853
0738 1420663574 124.4596
0739 1420666503 124.8919
0740 1420669433 124.1007
0741 1420672363 124.4047
0742 1420675292 123.9088
0743 1420678222 125.8386
0744 1420681152 125.6008
0745 1420684082 125.9788
0746 1420687011 125.4977
0747 1420689941 124.8319
0748 1420692871 121.9655
0749 1420695800 123.9814
0750 1420698730 123.6682
0751 1420701660 122.0634
0752 1420704589 124.2015
0753 1420707519 122.0940
0754 1420710449 121.9848
0755 1420713378 121.9793
0756 1420716308 123.3835
0757 1420719238 123.6126
0758 1420722167 122.0226
0759 1420725097 122.8898
0760 1420728027 122.2432
0761 1420730957 123.5774
0762 1420733886 123.3044
0763 1420736816 122.2966
0764 1420739746 122.5591
0765 1420742675 124.2450
0766 1420745605 121.3727
0767 1420748535 122.3477
0768 1420751464 122.9072
0769 1420754394 121.2362
0770 1420757324 122.0267
0771 1420760253 121.5080
0772 1420763183 125.1603
0773 1420766113 122.1058
0774 1420769042 120.2874
0775 1420771972 121.2337
0776 1420774902 122.8722
0777 1420777832 121.6458
0778 1420780761 119.9822
0779 1420783691 120.6161
0780 1420786621 120.4231
0781 1420789550 120.8320
0782 1420792480 121.4217
0783 1420795410 119.7657
0784 1420798339 121.5069
0785 1420801269 129.2971
0786 1420804199 124.4037
0787 1420807128 118.9275
0788 1420810058 119.1355
0789 1420812988 118.6170
0790 1420815917 118.9553
0791 1420818847 118.5926
0792 1420821777 119.3766
0793 1420824707 116.8404
0794 1420827636 119.0076
0795 1420830566 119.1772
0796 1420833496 117.7255
0797 1420836425 117.7906
0798 1420839355 117.1267
0799 1420842285 117.9975
0800 1420845214 117.2832
0801 1420848144 115.4662
0802 1420851074 117.9409
0803 1420854003 119.1384
0804 1420856933 117.5407
0805 1420859863 116.0305
0806 1420862792 116.8782
0807 1420865722 117.5971
0808 1420868652 116.9517
0809 1420871582 115.3032
0810 1420874511 117.0586
0811 1420877441 115.4596
0812 1420880371 115.4935
0813 1420883300 115.0943
0814 1420886230 114.1792
0815 1420889160 111.9520
0816 1420892089 114.7526
0817 1420895019 113.4596
0818 1420897949 113.9652
0819 1420900878 112.0182
0820 1420903808 112.8985
0821 1420906738 113.5230
0822 1420909667 112.5666
0823 1420912597 113.0450
0824 1420915527 112.4117
0825 1420918457 112.2962
0826 1420921386 112.5229
0827 1420924316 112.2170
0828 1420927246 110.6108
0829 1420930175 109.4980
0830 1420933105 110.0047
0831 1420936035 111.1735
0832 1420938964 110.1694
0833 1420941894 109.6756
0834 1420944824 108.3354
0835 1420947753 106.7546
0836 1420950683 106.5986
0837 1420953613 107.4436
0838 1420956542 106.9837
0839 1420959472 106.7697
0840 1420962402 106.1074
0841 1420965332 104.8552
0842 1420968261 105.4804
0843 1420971191 104.8518
0844 1420974121 104.5732
0845 1420977050 103.7198
0846 1420979980 103.7494
0847 1420982910 102.4847
0848 1420985839 103.3331
0849 1420988769 103.8329
0850 1420991699 102.2686
0851 1420994628 100.5828
0852 1420997558 100.0985
0853 1421000488 100.4662
0854 1421003417 100.7421
0855 1421006347 99.8301
0856 1421009277 98.4255
0857 1421012207 98.5926
0858 1421015136 97.1298
0859 1421018066 96.6041
0860 1421020996 97.0440
0861 1421023925 96.7985
0862 1421026855 96.2648
0863 1421029785 96.5112
0864 1421032714 94.2402
0865 1421035644 94.1974
0866 1421038574 93.8680
0867 1421041503 91.8665
0868 1421044433 93.4746
0869 1421047363 91.8674
0870 1421050292 91.6356
0871 1421053222 90.5973
0872 1421056152 90.1802
0873 1421059082 90.0670
0874 1421062011 89.2325
0875 1421064941 88.7821
0876 1421067871 86.4282
0877 1421070800 85.9751
0878 1421073730 86.0491
0879 1421076660 85.7848
0880 1421079589 85.2773
0881 1421082519 84.0058
0882 1421085449 83.2874
0883 1421088378 84.0398
0884 1421091308 83.3519
0885 1421094238 82.2696
0886 1421097167 81.1859
0887 1421100097 81.2612
0888 1421103027 80.3324
0889 1421105957 79.3838
0890 1421108886 78.3766
0891 1421111816 77.8192
0892 1421114746 77.7412
0893 1421117675 77.2941
0894 1421120605 76.3831
0895 1421123535 75.3384
0896 1421126464 74.4783
0897 1421129394 74.0172
0898 1421132324 73.5590
0899 1421135253 72.4329
0900 1421138183 72.6879
0901 1421141113 71.6275
0902 1421144042 70.7727
0903 1421146972 69.8299
0904 1421149902 69.2982
0905 1421152832 68.5583
0906 1421155761 67.7089
0907 1421158691 67.2424
0908 1421161621 67.1515
0909 1421164550 65.7859
0910 1421167480 66.3151
0911 1421170410 63.9963
0912 1421173339 63.5071
0913 1421176269 62.9059
0914 1421179199 62.4487
0915 1421182128 61.7390
0916 1421185058 60.5861
0917 1421187988 61.1065
0918 1421190917 59.4024
0919 1421193847 58.3113
0920 1421196777 58.0133
0921 1421199707 57.8968
0922 1421202636 57.8246
0923 1421205566 56.5701
0924 1421208496 55.8526
0925 1421211425 55.4830
0926 1421214355 53.7196
0927 1421217285 52.9373
0928 1421220214 53.4927
0929 1421223144 51.8596
0930 1421226074 51.5301
0931 1421229003 50.9181
0932 1421231933 50.0169
0933 1421234863 49.4228
0934 1421237792 49.3199
0935 1421240722 48.4205
0936 1421243652 47.5231
0937 1421246582 47.1203
0938 1421249511 46.9678
0939 1421252441 46.7484
0940 1421255371 45.3124
0941 1421258300 44.9046
0942 1421261230 44.5013
0943 1421264160 43.9213
0944 1421267089 42.9991
0945 1421270019 41.9440
0946 1421272949 41.8468
0947 1421275878 40.8847
0948 1421278808 40.1760
0949 1421281738 39.2444
0950 1421284667 39.1395
0951 1421287597 38.5460
0952 1421290527 38.1981
0953 1421293457 37.6514
0954 1421296386 36.9658
0955 1421299316 36.0651
0956 1421302246 35.8255
0957 1421305175 35.5978
0958 1421308105 35.2262
0959 1421311035 34.0596
0960 1421313964 33.7038
0961 1421316894 33.5842
0962 1421319824 32.8333
0963 1421322753 32.1340
0964 1421325683 31.4736
0965 1421328613 31.3284
0966 1421331542 30.4798
0967 1421334472 30.1111
0968 1421337402 29.6635
0969 1421340332 29.3907
0970 1421343261 28.8861
0971 1421346191 28.8034
0972 1421349121 27.8034
0973 1421352050 27.5557
0974 1421354980 26.8211
0975 1421357910 26.9560
0976 1421360839 26.6014
0977 1421363769 25.6869
0978 1421366699 25.4479
0979 1421369628 24.7667
0980 1421372558 24.6620
0981 1421375488 24.1801
0982 1421378417 23.6409
0983 1421381347 23.1763
0984 1421384277 22.9276
0985 1421387207 22.8294
0986 1421390136 22.3523
0987 1421393066 22.1271
0988 1421395996 21.7133
0989 1421398925 21.3767
0990 1421401855 21.0430
0991 1421404785 20.8818
0992 1421407714 20.3051
0993 1421410644 20.1870
0994 1421413574 19.5986
0995 1421416503 19.4053
0996 1421419433 19.4474
0997 1421422363 18.9861
0998 1421425292 18.8548
0999 1421428222 18.8780
1000 1421431152 18.4705
1001 1421434082 17.9228
1002 1421437011 17.8733
1003 1421439941 17.6128
1004 1421442871 17.3793
1005 1421445800 17.1640
1006 1421448730 17.0358
1007 1421451660 16.7411
1008 1421454589 16.8843
1009 1421457519 16.3821
1010 1421460449 16.2384
1011 1421463378 16.1071
1012 1421466308 15.9254
1013 1421469238 16.2381
1014 1421472167 15.8256
1015 1421475097 15.7073
1016 1421478027 15.4729
1017 1421480957 15.7692
1018 1421483886 15.5592
1019 1421486816 15.2342
1020 1421489746 15.1760
1021 1421492675 15.0665
1022 1421495605 15.0185
1023 1421498535 14.9505
