# File: 20-05-29T170822.ast
# NOTEA     = None Attached.  RTLSDR Dongle Test
# NOTEB     = Spectral Integration
# OBSERVER  = Science Aficionado
# DEVICE    = rtl=0,bias=1
# DATADIR   = ../data/
# SITE      = Small Metal Horn - NeSDR Test
# CITY      = Green Bank
# REGION    = West Virginia
# COUNTRY   = US
# TELTYPE   = Bubble Wrap  Horn
# FRAME     = TOPO
# GAIN1     = 40.0
# GAIN2     = 11.0
# GAIN3     = 11.0
# GAIN4     = 0.0
# Count     = 2500
# CenterFreq= 1420000000.0
# Bandwidth = 3000000.0
# Duration  = 21.84334
# DeltaX    = 5859.375
# TSYS      = 200.0
# TRX       = 100.0
# TRMS      = 2.0
# TINT      = 1.0
# KPERC     = 100.0
# GAINFACT  = 1.0
# BUNIT     = Counts
# NCHAN     = 1024
# NSPEC     = 1
# NTIME     = 0
# NSAMPLES  = 0
# EPEAK     = 4.10875183718
# ERMS      = 0.995973393526
# EMJD      = 58568.808999981004 
# REFCHAN   = 512.0
# REFSAMPL  = 256.0
# NAVE      = 50
# NMEDIAN   = 1024
# Fft_rate  = 5000
# UTC       = 2020-05-29 17:08:22.880804
# SECONDS   =       0.0000000000 
# LST       = 04:19:45.190
# AZ        = 180.0
# EL        = 90.0
# TELLON    = -79:50:22.920
# TELLAT    = +38:25:59.160
# RA        = 04:17:03.770
# DEC       = +38:20:15.100
# GALLON    = 161:16:17.50
# GALLAT    = -08:46:42.60
# ALT_SUN   = +73:14:04.2
# AZ_SUN    = +173:08:47.0
# ETAA      = 0.8
# ETAB      = 0.99
# POLANGLE  = 0.0
# TELSIZEAM = 1.0
# TELSIZEBM = 1.0
# AST_VERS  = 05.01
0000 1418501464 14.8921
0001 1418504394 14.9201
0002 1418507324 14.9143
0003 1418510253 14.9550
0004 1418513183 14.9789
0005 1418516113 14.8056
0006 1418519042 14.9168
0007 1418521972 15.1198
0008 1418524902 14.9543
0009 1418527832 15.0990
0010 1418530761 14.9852
0011 1418533691 15.0454
0012 1418536621 15.1793
0013 1418539550 15.3353
0014 1418542480 15.2912
0015 1418545410 15.4730
0016 1418548339 15.3565
0017 1418551269 15.5367
0018 1418554199 15.7982
0019 1418557128 15.7921
0020 1418560058 15.9460
0021 1418562988 16.0941
0022 1418565917 16.2346
0023 1418568847 16.1938
0024 1418571777 16.4777
0025 1418574707 16.8006
0026 1418577636 16.8347
0027 1418580566 17.0077
0028 1418583496 17.1701
0029 1418586425 17.3144
0030 1418589355 17.5372
0031 1418592285 17.7698
0032 1418595214 17.9452
0033 1418598144 17.9685
0034 1418601074 18.4378
0035 1418604003 18.8036
0036 1418606933 18.8339
0037 1418609863 18.9038
0038 1418612792 19.5231
0039 1418615722 19.5771
0040 1418618652 20.0320
0041 1418621582 20.2852
0042 1418624511 20.7363
0043 1418627441 21.0127
0044 1418630371 21.2904
0045 1418633300 21.4713
0046 1418636230 21.9834
0047 1418639160 22.0238
0048 1418642089 22.3468
0049 1418645019 23.0846
0050 1418647949 23.2198
0051 1418650878 23.6411
0052 1418653808 23.9386
0053 1418656738 24.4397
0054 1418659667 24.6739
0055 1418662597 24.7895
0056 1418665527 24.9755
0057 1418668457 25.6130
0058 1418671386 25.9891
0059 1418674316 25.9793
0060 1418677246 26.9171
0061 1418680175 27.1635
0062 1418683105 27.6370
0063 1418686035 27.9966
0064 1418688964 28.5246
0065 1418691894 28.6629
0066 1418694824 29.0367
0067 1418697753 29.7946
0068 1418700683 30.3034
0069 1418703613 30.6972
0070 1418706542 31.0240
0071 1418709472 31.6929
0072 1418712402 31.8460
0073 1418715332 32.3182
0074 1418718261 33.0250
0075 1418721191 33.8360
0076 1418724121 33.8384
0077 1418727050 34.1643
0078 1418729980 34.8307
0079 1418732910 35.5805
0080 1418735839 36.2468
0081 1418738769 36.3217
0082 1418741699 37.1481
0083 1418744628 37.3223
0084 1418747558 37.6693
0085 1418750488 38.6271
0086 1418753417 39.2321
0087 1418756347 39.4530
0088 1418759277 40.2386
0089 1418762207 40.5207
0090 1418765136 40.7920
0091 1418768066 41.6365
0092 1418770996 41.8221
0093 1418773925 42.6127
0094 1418776855 42.9804
0095 1418779785 44.6207
0096 1418782714 44.9279
0097 1418785644 44.8052
0098 1418788574 45.8079
0099 1418791503 46.4460
0100 1418794433 46.2197
0101 1418797363 46.6799
0102 1418800292 47.7291
0103 1418803222 48.9425
0104 1418806152 48.8276
0105 1418809082 49.4301
0106 1418812011 50.2323
0107 1418814941 50.4975
0108 1418817871 51.4940
0109 1418820800 51.1753
0110 1418823730 52.3729
0111 1418826660 53.0142
0112 1418829589 53.5696
0113 1418832519 54.2113
0114 1418835449 54.2782
0115 1418838378 55.1545
0116 1418841308 55.7482
0117 1418844238 56.7112
0118 1418847167 56.3209
0119 1418850097 57.9296
0120 1418853027 58.1252
0121 1418855957 58.4744
0122 1418858886 58.6272
0123 1418861816 58.9861
0124 1418864746 59.3025
0125 1418867675 60.0852
0126 1418870605 61.3973
0127 1418873535 61.6262
0128 1418876464 61.9230
0129 1418879394 63.7627
0130 1418882324 64.0524
0131 1418885253 64.1499
0132 1418888183 64.1715
0133 1418891113 64.9997
0134 1418894042 65.1270
0135 1418896972 67.2447
0136 1418899902 66.0459
0137 1418902832 67.2278
0138 1418905761 68.2226
0139 1418908691 69.0063
0140 1418911621 69.7574
0141 1418914550 70.0521
0142 1418917480 71.1816
0143 1418920410 70.3929
0144 1418923339 71.2749
0145 1418926269 71.1176
0146 1418929199 72.8642
0147 1418932128 72.8684
0148 1418935058 73.4032
0149 1418937988 72.7127
0150 1418940917 73.8808
0151 1418943847 74.6897
0152 1418946777 75.8581
0153 1418949707 74.5009
0154 1418952636 76.9425
0155 1418955566 77.3726
0156 1418958496 77.7727
0157 1418961425 78.1296
0158 1418964355 77.7659
0159 1418967285 78.9112
0160 1418970214 79.2136
0161 1418973144 80.4982
0162 1418976074 80.8848
0163 1418979003 80.3198
0164 1418981933 81.0033
0165 1418984863 81.1493
0166 1418987792 81.6827
0167 1418990722 82.9880
0168 1418993652 83.0163
0169 1418996582 83.6719
0170 1418999511 83.6180
0171 1419002441 85.3768
0172 1419005371 85.5196
0173 1419008300 85.0998
0174 1419011230 86.3097
0175 1419014160 87.7197
0176 1419017089 86.4356
0177 1419020019 87.5205
0178 1419022949 87.1602
0179 1419025878 87.9431
0180 1419028808 88.3346
0181 1419031738 87.9220
0182 1419034667 88.5783
0183 1419037597 89.3340
0184 1419040527 89.6847
0185 1419043457 89.8245
0186 1419046386 90.4771
0187 1419049316 90.4433
0188 1419052246 90.2098
0189 1419055175 90.0326
0190 1419058105 90.5378
0191 1419061035 92.6923
0192 1419063964 93.3280
0193 1419066894 91.9584
0194 1419069824 93.2757
0195 1419072753 92.8026
0196 1419075683 92.3230
0197 1419078613 93.1525
0198 1419081542 95.4365
0199 1419084472 95.2401
0200 1419087402 95.8330
0201 1419090332 94.0495
0202 1419093261 94.2011
0203 1419096191 94.4489
0204 1419099121 96.7510
0205 1419102050 96.3704
0206 1419104980 97.8654
0207 1419107910 97.0749
0208 1419110839 96.4654
0209 1419113769 96.6810
0210 1419116699 97.6993
0211 1419119628 98.4675
0212 1419122558 99.9904
0213 1419125488 99.1626
0214 1419128417 99.2083
0215 1419131347 98.6646
0216 1419134277 98.7714
0217 1419137207 98.7131
0218 1419140136 100.3849
0219 1419143066 99.5784
0220 1419145996 100.9533
0221 1419148925 102.5628
0222 1419151855 100.1774
0223 1419154785 99.3282
0224 1419157714 102.1273
0225 1419160644 100.9722
0226 1419163574 101.6009
0227 1419166503 101.0628
0228 1419169433 100.2537
0229 1419172363 100.2943
0230 1419175292 102.2257
0231 1419178222 101.3325
0232 1419181152 104.0240
0233 1419184082 101.4172
0234 1419187011 102.5382
0235 1419189941 102.0913
0236 1419192871 102.6643
0237 1419195800 102.8065
0238 1419198730 101.7174
0239 1419201660 102.6041
0240 1419204589 102.3957
0241 1419207519 102.8633
0242 1419210449 102.8155
0243 1419213378 103.9956
0244 1419216308 104.3558
0245 1419219238 104.1380
0246 1419222167 103.9955
0247 1419225097 104.2400
0248 1419228027 103.0396
0249 1419230957 104.1500
0250 1419233886 103.8618
0251 1419236816 106.3949
0252 1419239746 105.1284
0253 1419242675 104.3855
0254 1419245605 104.4722
0255 1419248535 106.4109
0256 1419251464 105.2956
0257 1419254394 104.9338
0258 1419257324 107.1716
0259 1419260253 106.0532
0260 1419263183 105.2253
0261 1419266113 105.2737
0262 1419269042 104.7769
0263 1419271972 105.6295
0264 1419274902 105.5341
0265 1419277832 105.2989
0266 1419280761 108.0923
0267 1419283691 105.6213
0268 1419286621 105.8183
0269 1419289550 105.3034
0270 1419292480 105.9412
0271 1419295410 106.3518
0272 1419298339 105.9985
0273 1419301269 107.2152
0274 1419304199 105.0671
0275 1419307128 105.8120
0276 1419310058 107.3760
0277 1419312988 105.3921
0278 1419315917 106.8457
0279 1419318847 106.8476
0280 1419321777 107.0037
0281 1419324707 106.2553
0282 1419327636 107.8887
0283 1419330566 106.9705
0284 1419333496 108.4917
0285 1419336425 107.8674
0286 1419339355 106.7509
0287 1419342285 106.3608
0288 1419345214 107.1942
0289 1419348144 105.9230
0290 1419351074 108.7093
0291 1419354003 108.1768
0292 1419356933 107.4736
0293 1419359863 107.1287
0294 1419362792 108.5124
0295 1419365722 108.5302
0296 1419368652 108.5796
0297 1419371582 108.9046
0298 1419374511 108.5356
0299 1419377441 107.9249
0300 1419380371 109.0933
0301 1419383300 108.1671
0302 1419386230 109.2479
0303 1419389160 108.8623
0304 1419392089 108.3933
0305 1419395019 108.9705
0306 1419397949 109.7926
0307 1419400878 108.7097
0308 1419403808 109.5943
0309 1419406738 109.3176
0310 1419409667 109.0884
0311 1419412597 107.8367
0312 1419415527 107.7128
0313 1419418457 108.7164
0314 1419421386 109.8835
0315 1419424316 109.8887
0316 1419427246 111.0055
0317 1419430175 110.7015
0318 1419433105 109.0257
0319 1419436035 110.1354
0320 1419438964 110.0222
0321 1419441894 110.1820
0322 1419444824 111.2921
0323 1419447753 109.9896
0324 1419450683 110.5129
0325 1419453613 111.7281
0326 1419456542 111.9694
0327 1419459472 110.5758
0328 1419462402 112.2202
0329 1419465332 111.1103
0330 1419468261 109.3190
0331 1419471191 111.6522
0332 1419474121 112.7771
0333 1419477050 112.5555
0334 1419479980 111.8093
0335 1419482910 112.1087
0336 1419485839 111.8477
0337 1419488769 112.4040
0338 1419491699 113.5533
0339 1419494628 114.5745
0340 1419497558 111.3600
0341 1419500488 114.1116
0342 1419503417 113.3286
0343 1419506347 113.4764
0344 1419509277 112.6657
0345 1419512207 113.5434
0346 1419515136 114.4455
0347 1419518066 113.9431
0348 1419520996 113.2831
0349 1419523925 114.3277
0350 1419526855 113.0916
0351 1419529785 114.4588
0352 1419532714 114.3340
0353 1419535644 114.1937
0354 1419538574 115.1872
0355 1419541503 114.5496
0356 1419544433 114.8801
0357 1419547363 116.2674
0358 1419550292 116.8763
0359 1419553222 116.1257
0360 1419556152 117.8833
0361 1419559082 117.9744
0362 1419562011 116.7759
0363 1419564941 116.0010
0364 1419567871 116.3373
0365 1419570800 115.4871
0366 1419573730 118.3946
0367 1419576660 118.9777
0368 1419579589 117.9945
0369 1419582519 118.7987
0370 1419585449 118.5277
0371 1419588378 120.3485
0372 1419591308 120.3649
0373 1419594238 119.8399
0374 1419597167 118.7009
0375 1419600097 118.3903
0376 1419603027 120.0463
0377 1419605957 120.6105
0378 1419608886 118.9050
0379 1419611816 121.2059
0380 1419614746 119.8616
0381 1419617675 120.6705
0382 1419620605 118.8928
0383 1419623535 119.2173
0384 1419626464 122.2145
0385 1419629394 121.6317
0386 1419632324 121.5574
0387 1419635253 121.3825
0388 1419638183 120.4081
0389 1419641113 121.6411
0390 1419644042 121.8769
0391 1419646972 123.0452
0392 1419649902 123.5020
0393 1419652832 123.6552
0394 1419655761 125.4775
0395 1419658691 126.9311
0396 1419661621 124.8311
0397 1419664550 126.1195
0398 1419667480 125.6400
0399 1419670410 126.0643
0400 1419673339 125.0834
0401 1419676269 126.0982
0402 1419679199 126.1484
0403 1419682128 124.9019
0404 1419685058 125.9947
0405 1419687988 126.5607
0406 1419690917 127.2980
0407 1419693847 127.8478
0408 1419696777 128.9496
0409 1419699707 129.0599
0410 1419702636 128.4900
0411 1419705566 127.6180
0412 1419708496 129.0835
0413 1419711425 127.7441
0414 1419714355 129.7657
0415 1419717285 130.0862
0416 1419720214 129.4763
0417 1419723144 130.0503
0418 1419726074 129.9483
0419 1419729003 129.3142
0420 1419731933 130.3201
0421 1419734863 132.4145
0422 1419737792 131.0896
0423 1419740722 130.8417
0424 1419743652 132.3073
0425 1419746582 132.7630
0426 1419749511 132.5643
0427 1419752441 132.2794
0428 1419755371 131.8765
0429 1419758300 132.0984
0430 1419761230 132.0089
0431 1419764160 131.1043
0432 1419767089 132.7111
0433 1419770019 135.3864
0434 1419772949 133.4432
0435 1419775878 133.7031
0436 1419778808 135.6759
0437 1419781738 135.2672
0438 1419784667 135.8130
0439 1419787597 136.8322
0440 1419790527 135.1443
0441 1419793457 137.6787
0442 1419796386 136.0224
0443 1419799316 137.5385
0444 1419802246 134.9592
0445 1419805175 135.4481
0446 1419808105 136.0741
0447 1419811035 138.5490
0448 1419813964 137.5780
0449 1419816894 137.0618
0450 1419819824 137.6618
0451 1419822753 138.7194
0452 1419825683 139.9674
0453 1419828613 140.7199
0454 1419831542 139.5267
0455 1419834472 140.4186
0456 1419837402 139.0403
0457 1419840332 138.8870
0458 1419843261 138.3673
0459 1419846191 141.4474
0460 1419849121 141.3684
0461 1419852050 141.6079
0462 1419854980 139.8633
0463 1419857910 139.4545
0464 1419860839 142.0216
0465 1419863769 144.2336
0466 1419866699 141.6931
0467 1419869628 142.0576
0468 1419872558 141.5148
0469 1419875488 142.0801
0470 1419878417 144.6353
0471 1419881347 143.4214
0472 1419884277 141.4055
0473 1419887207 142.5971
0474 1419890136 144.6448
0475 1419893066 145.9827
0476 1419895996 144.0499
0477 1419898925 143.8862
0478 1419901855 144.1302
0479 1419904785 144.9208
0480 1419907714 144.5562
0481 1419910644 144.9994
0482 1419913574 147.1157
0483 1419916503 144.7146
0484 1419919433 146.4578
0485 1419922363 145.7484
0486 1419925292 146.0373
0487 1419928222 145.4612
0488 1419931152 147.0943
0489 1419934082 146.3057
0490 1419937011 148.5606
0491 1419939941 148.0416
0492 1419942871 149.0125
0493 1419945800 149.6874
0494 1419948730 149.1124
0495 1419951660 150.0237
0496 1419954589 150.4780
0497 1419957519 149.4537
0498 1419960449 148.6510
0499 1419963378 151.0200
0500 1419966308 149.7388
0501 1419969238 148.3832
0502 1419972167 149.0880
0503 1419975097 153.0521
0504 1419978027 152.7141
0505 1419980957 153.2066
0506 1419983886 156.2270
0507 1419986816 154.8878
0508 1419989746 157.6670
0509 1419992675 161.8669
0510 1419995605 166.6968
0511 1419998535 194.6296
0512 1420001464 245.1030
0513 1420004394 193.5706
0514 1420007324 168.8984
0515 1420010253 160.8465
0516 1420013183 159.0246
0517 1420016113 153.8439
0518 1420019042 155.0769
0519 1420021972 156.4785
0520 1420024902 154.8237
0521 1420027832 153.9897
0522 1420030761 151.6904
0523 1420033691 152.0076
0524 1420036621 151.6147
0525 1420039550 150.6407
0526 1420042480 152.2788
0527 1420045410 152.2105
0528 1420048339 150.3468
0529 1420051269 152.0326
0530 1420054199 151.7368
0531 1420057128 150.6002
0532 1420060058 150.9004
0533 1420062988 150.1881
0534 1420065917 151.4848
0535 1420068847 151.3793
0536 1420071777 150.8054
0537 1420074707 148.8974
0538 1420077636 148.0584
0539 1420080566 149.6206
0540 1420083496 148.4769
0541 1420086425 149.3282
0542 1420089355 149.1231
0543 1420092285 148.5788
0544 1420095214 148.9242
0545 1420098144 147.8145
0546 1420101074 149.4513
0547 1420104003 149.8965
0548 1420106933 150.6177
0549 1420109863 148.3395
0550 1420112792 149.0570
0551 1420115722 148.4424
0552 1420118652 148.9958
0553 1420121582 148.7839
0554 1420124511 147.7832
0555 1420127441 148.1613
0556 1420130371 148.0687
0557 1420133300 148.2630
0558 1420136230 148.1788
0559 1420139160 146.3452
0560 1420142089 144.6331
0561 1420145019 147.4123
0562 1420147949 147.9996
0563 1420150878 147.0152
0564 1420153808 147.8812
0565 1420156738 145.7951
0566 1420159667 146.7459
0567 1420162597 146.3610
0568 1420165527 144.1507
0569 1420168457 147.3352
0570 1420171386 145.3880
0571 1420174316 145.3167
0572 1420177246 145.5349
0573 1420180175 147.4644
0574 1420183105 145.5078
0575 1420186035 144.8202
0576 1420188964 146.5905
0577 1420191894 145.5913
0578 1420194824 146.4523
0579 1420197753 144.1177
0580 1420200683 146.0974
0581 1420203613 145.2990
0582 1420206542 145.4352
0583 1420209472 144.2030
0584 1420212402 144.8301
0585 1420215332 146.0059
0586 1420218261 145.4516
0587 1420221191 146.2349
0588 1420224121 147.4794
0589 1420227050 146.9043
0590 1420229980 145.5073
0591 1420232910 146.8627
0592 1420235839 147.4462
0593 1420238769 146.6487
0594 1420241699 146.3554
0595 1420244628 145.2842
0596 1420247558 145.8242
0597 1420250488 149.7052
0598 1420253417 149.7208
0599 1420256347 148.3478
0600 1420259277 148.3870
0601 1420262207 146.3021
0602 1420265136 149.6959
0603 1420268066 147.9891
0604 1420270996 148.7261
0605 1420273925 146.0329
0606 1420276855 148.2855
0607 1420279785 147.7352
0608 1420282714 147.1198
0609 1420285644 149.7947
0610 1420288574 149.3665
0611 1420291503 150.1839
0612 1420294433 149.3444
0613 1420297363 148.6534
0614 1420300292 152.8796
0615 1420303222 149.0531
0616 1420306152 149.7033
0617 1420309082 150.3893
0618 1420312011 150.7807
0619 1420314941 151.8920
0620 1420317871 150.6439
0621 1420320800 149.1290
0622 1420323730 152.3219
0623 1420326660 149.1911
0624 1420329589 148.9807
0625 1420332519 150.5749
0626 1420335449 148.3451
0627 1420338378 148.0266
0628 1420341308 150.0444
0629 1420344238 147.0922
0630 1420347167 149.1272
0631 1420350097 147.0255
0632 1420353027 148.7581
0633 1420355957 149.2113
0634 1420358886 147.7305
0635 1420361816 148.5843
0636 1420364746 148.9692
0637 1420367675 149.1230
0638 1420370605 148.9421
0639 1420373535 149.9644
0640 1420376464 146.7472
0641 1420379394 147.5349
0642 1420382324 144.2939
0643 1420385253 145.8043
0644 1420388183 145.9464
0645 1420391113 145.2618
0646 1420394042 145.9450
0647 1420396972 145.2540
0648 1420399902 145.5947
0649 1420402832 145.3388
0650 1420405761 143.7681
0651 1420408691 143.7761
0652 1420411621 142.7137
0653 1420414550 143.5760
0654 1420417480 144.5872
0655 1420420410 141.7309
0656 1420423339 143.5520
0657 1420426269 142.2244
0658 1420429199 142.7976
0659 1420432128 141.4327
0660 1420435058 140.0835
0661 1420437988 137.7024
0662 1420440917 138.8609
0663 1420443847 139.7204
0664 1420446777 139.7357
0665 1420449707 138.4630
0666 1420452636 137.3223
0667 1420455566 136.7841
0668 1420458496 138.3970
0669 1420461425 139.4725
0670 1420464355 138.0889
0671 1420467285 136.3254
0672 1420470214 137.1015
0673 1420473144 137.5052
0674 1420476074 133.7097
0675 1420479003 135.7721
0676 1420481933 132.8989
0677 1420484863 134.3627
0678 1420487792 133.4504
0679 1420490722 134.7053
0680 1420493652 134.6872
0681 1420496582 134.5240
0682 1420499511 133.0142
0683 1420502441 131.8343
0684 1420505371 133.2636
0685 1420508300 132.5340
0686 1420511230 133.0454
0687 1420514160 131.4661
0688 1420517089 131.7858
0689 1420520019 130.1808
0690 1420522949 128.9005
0691 1420525878 129.9980
0692 1420528808 130.1908
0693 1420531738 130.2986
0694 1420534667 128.2698
0695 1420537597 128.8332
0696 1420540527 130.6172
0697 1420543457 128.6079
0698 1420546386 130.7291
0699 1420549316 128.7683
0700 1420552246 129.0327
0701 1420555175 128.0931
0702 1420558105 130.4446
0703 1420561035 129.3243
0704 1420563964 129.5129
0705 1420566894 129.4089
0706 1420569824 126.4436
0707 1420572753 126.9616
0708 1420575683 126.9241
0709 1420578613 128.3145
0710 1420581542 126.7618
0711 1420584472 125.4372
0712 1420587402 125.1878
0713 1420590332 127.3083
0714 1420593261 125.8659
0715 1420596191 126.0874
0716 1420599121 125.5306
0717 1420602050 126.5285
0718 1420604980 124.2580
0719 1420607910 124.6754
0720 1420610839 124.8581
0721 1420613769 125.3018
0722 1420616699 126.0846
0723 1420619628 125.5740
0724 1420622558 122.7788
0725 1420625488 123.6009
0726 1420628417 123.3203
0727 1420631347 125.4413
0728 1420634277 123.8634
0729 1420637207 124.1700
0730 1420640136 123.3256
0731 1420643066 124.6549
0732 1420645996 123.0805
0733 1420648925 124.7477
0734 1420651855 123.1590
0735 1420654785 123.7422
0736 1420657714 124.5756
0737 1420660644 123.4579
0738 1420663574 122.7453
0739 1420666503 123.2201
0740 1420669433 123.5361
0741 1420672363 124.0088
0742 1420675292 123.3706
0743 1420678222 123.4821
0744 1420681152 123.8576
0745 1420684082 124.9557
0746 1420687011 122.9696
0747 1420689941 122.6228
0748 1420692871 123.2243
0749 1420695800 122.8239
0750 1420698730 123.9270
0751 1420701660 123.4220
0752 1420704589 121.9760
0753 1420707519 122.5569
0754 1420710449 121.2302
0755 1420713378 123.6605
0756 1420716308 121.4384
0757 1420719238 120.8664
0758 1420722167 122.4521
0759 1420725097 122.9566
0760 1420728027 121.8088
0761 1420730957 121.1056
0762 1420733886 121.8213
0763 1420736816 122.0074
0764 1420739746 121.3575
0765 1420742675 123.3131
0766 1420745605 119.8297
0767 1420748535 121.8328
0768 1420751464 120.3326
0769 1420754394 119.5847
0770 1420757324 121.0000
0771 1420760253 120.4182
0772 1420763183 121.3933
0773 1420766113 119.3710
0774 1420769042 119.6334
0775 1420771972 121.6557
0776 1420774902 120.4199
0777 1420777832 119.2808
0778 1420780761 120.9533
0779 1420783691 120.6062
0780 1420786621 121.6877
0781 1420789550 121.3458
0782 1420792480 119.8438
0783 1420795410 119.0270
0784 1420798339 119.9485
0785 1420801269 126.3696
0786 1420804199 123.1334
0787 1420807128 118.3395
0788 1420810058 120.8273
0789 1420812988 120.0562
0790 1420815917 119.8772
0791 1420818847 118.6401
0792 1420821777 118.7598
0793 1420824707 119.8865
0794 1420827636 118.0425
0795 1420830566 118.7427
0796 1420833496 118.1658
0797 1420836425 117.0948
0798 1420839355 117.0523
0799 1420842285 119.3404
0800 1420845214 118.6810
0801 1420848144 117.7532
0802 1420851074 116.2210
0803 1420854003 118.2721
0804 1420856933 116.8361
0805 1420859863 114.1991
0806 1420862792 114.6347
0807 1420865722 115.9264
0808 1420868652 116.0371
0809 1420871582 114.7874
0810 1420874511 113.9258
0811 1420877441 114.3691
0812 1420880371 115.0098
0813 1420883300 114.0015
0814 1420886230 113.6003
0815 1420889160 114.4715
0816 1420892089 114.4835
0817 1420895019 112.1448
0818 1420897949 113.7802
0819 1420900878 113.6461
0820 1420903808 112.5663
0821 1420906738 112.5813
0822 1420909667 113.0608
0823 1420912597 112.6173
0824 1420915527 112.2059
0825 1420918457 110.7759
0826 1420921386 110.3424
0827 1420924316 109.7823
0828 1420927246 109.4688
0829 1420930175 109.0818
0830 1420933105 109.3087
0831 1420936035 108.9766
0832 1420938964 107.5681
0833 1420941894 107.9725
0834 1420944824 107.6576
0835 1420947753 107.6711
0836 1420950683 106.5843
0837 1420953613 107.0883
0838 1420956542 106.8027
0839 1420959472 106.2432
0840 1420962402 104.9868
0841 1420965332 105.1444
0842 1420968261 104.9568
0843 1420971191 104.2534
0844 1420974121 104.4978
0845 1420977050 103.2864
0846 1420979980 104.2889
0847 1420982910 103.0726
0848 1420985839 101.9403
0849 1420988769 102.3564
0850 1420991699 100.5091
0851 1420994628 100.3455
0852 1420997558 99.4751
0853 1421000488 99.5725
0854 1421003417 98.8278
0855 1421006347 97.2880
0856 1421009277 98.1617
0857 1421012207 98.3014
0858 1421015136 97.1195
0859 1421018066 96.9596
0860 1421020996 97.4073
0861 1421023925 94.9800
0862 1421026855 94.7325
0863 1421029785 94.0996
0864 1421032714 93.0400
0865 1421035644 94.2543
0866 1421038574 93.4917
0867 1421041503 92.8006
0868 1421044433 91.1259
0869 1421047363 91.0562
0870 1421050292 90.7553
0871 1421053222 90.7376
0872 1421056152 90.1422
0873 1421059082 88.1064
0874 1421062011 88.0435
0875 1421064941 88.1726
0876 1421067871 87.7643
0877 1421070800 85.5927
0878 1421073730 85.2587
0879 1421076660 85.4639
0880 1421079589 84.4234
0881 1421082519 83.5837
0882 1421085449 83.5328
0883 1421088378 83.3454
0884 1421091308 82.1914
0885 1421094238 81.6127
0886 1421097167 80.8344
0887 1421100097 80.5657
0888 1421103027 79.3054
0889 1421105957 78.0144
0890 1421108886 77.5722
0891 1421111816 77.1923
0892 1421114746 76.9512
0893 1421117675 76.4360
0894 1421120605 75.2125
0895 1421123535 74.5235
0896 1421126464 74.0563
0897 1421129394 72.7179
0898 1421132324 71.9259
0899 1421135253 72.0144
0900 1421138183 71.4372
0901 1421141113 70.3711
0902 1421144042 70.0758
0903 1421146972 69.6283
0904 1421149902 68.2599
0905 1421152832 68.4394
0906 1421155761 67.3676
0907 1421158691 67.4041
0908 1421161621 66.6512
0909 1421164550 65.3252
0910 1421167480 64.8635
0911 1421170410 64.1119
0912 1421173339 63.2418
0913 1421176269 63.2295
0914 1421179199 62.4068
0915 1421182128 61.2161
0916 1421185058 61.0931
0917 1421187988 60.0305
0918 1421190917 59.2907
0919 1421193847 58.3747
0920 1421196777 57.9866
0921 1421199707 58.1101
0922 1421202636 56.4449
0923 1421205566 56.3052
0924 1421208496 55.3695
0925 1421211425 55.0970
0926 1421214355 53.9134
0927 1421217285 53.6097
0928 1421220214 52.7029
0929 1421223144 51.6870
0930 1421226074 51.9117
0931 1421229003 50.9543
0932 1421231933 49.0027
0933 1421234863 49.4594
0934 1421237792 48.4846
0935 1421240722 47.8017
0936 1421243652 47.4183
0937 1421246582 47.0534
0938 1421249511 45.9278
0939 1421252441 45.8752
0940 1421255371 45.3568
0941 1421258300 44.3494
0942 1421261230 43.2229
0943 1421264160 42.8726
0944 1421267089 41.6338
0945 1421270019 42.1304
0946 1421272949 40.8304
0947 1421275878 40.8818
0948 1421278808 40.4792
0949 1421281738 39.4428
0950 1421284667 38.7873
0951 1421287597 38.0988
0952 1421290527 38.0732
0953 1421293457 37.3474
0954 1421296386 36.9980
0955 1421299316 36.2734
0956 1421302246 35.3429
0957 1421305175 35.0898
0958 1421308105 34.7038
0959 1421311035 33.8421
0960 1421313964 33.3748
0961 1421316894 32.9130
0962 1421319824 33.0936
0963 1421322753 31.7984
0964 1421325683 31.1166
0965 1421328613 30.7774
0966 1421331542 30.4055
0967 1421334472 30.3787
0968 1421337402 29.2023
0969 1421340332 28.7533
0970 1421343261 28.3356
0971 1421346191 28.3014
0972 1421349121 27.9153
0973 1421352050 27.1694
0974 1421354980 26.8211
0975 1421357910 26.3889
0976 1421360839 25.8043
0977 1421363769 25.5771
0978 1421366699 24.9423
0979 1421369628 24.5778
0980 1421372558 24.2608
0981 1421375488 24.1211
0982 1421378417 23.6256
0983 1421381347 23.3663
0984 1421384277 23.0084
0985 1421387207 22.4768
0986 1421390136 22.2561
0987 1421393066 21.7098
0988 1421395996 21.5236
0989 1421398925 21.1539
0990 1421401855 20.7099
0991 1421404785 20.5593
0992 1421407714 20.3412
0993 1421410644 19.9240
0994 1421413574 19.7281
0995 1421416503 19.5836
0996 1421419433 19.2291
0997 1421422363 18.9722
0998 1421425292 18.5465
0999 1421428222 18.1915
1000 1421431152 18.1837
1001 1421434082 17.6055
1002 1421437011 17.6036
1003 1421439941 17.6446
1004 1421442871 17.4352
1005 1421445800 17.0684
1006 1421448730 16.9957
1007 1421451660 16.8398
1008 1421454589 16.6336
1009 1421457519 16.4705
1010 1421460449 16.2212
1011 1421463378 16.0329
1012 1421466308 16.0680
1013 1421469238 15.8539
1014 1421472167 15.6959
1015 1421475097 15.6486
1016 1421478027 15.6464
1017 1421480957 15.4005
1018 1421483886 15.3481
1019 1421486816 15.3205
1020 1421489746 15.1216
1021 1421492675 15.1042
1022 1421495605 15.1791
1023 1421498535 15.1227
