# File: 20-05-29T170928.ast
# NOTEA     = None Attached.  RTLSDR Dongle Test
# NOTEB     = Spectral Integration
# OBSERVER  = Science Aficionado
# DEVICE    = rtl=0,bias=1
# DATADIR   = ../data/
# SITE      = Small Metal Horn - NeSDR Test
# CITY      = Green Bank
# REGION    = West Virginia
# COUNTRY   = US
# TELTYPE   = Bubble Wrap  Horn
# FRAME     = TOPO
# GAIN1     = 40.0
# GAIN2     = 11.0
# GAIN3     = 11.0
# GAIN4     = 0.0
# Count     = 2500
# CenterFreq= 1420000000.0
# Bandwidth = 3000000.0
# Duration  = 21.842467
# DeltaX    = 5859.375
# TSYS      = 200.0
# TRX       = 100.0
# TRMS      = 2.0
# TINT      = 1.0
# KPERC     = 100.0
# GAINFACT  = 1.0
# BUNIT     = Counts
# NCHAN     = 1024
# NSPEC     = 1
# NTIME     = 0
# NSAMPLES  = 0
# EPEAK     = 4.10875183718
# ERMS      = 0.995973393526
# EMJD      = 58568.808999981004 
# REFCHAN   = 512.0
# REFSAMPL  = 256.0
# NAVE      = 50
# NMEDIAN   = 1024
# Fft_rate  = 5000
# UTC       = 2020-05-29 17:09:28.414616
# SECONDS   =       0.0000000000 
# LST       = 04:20:50.900
# AZ        = 180.0
# EL        = 90.0
# TELLON    = -79:50:22.920
# TELLAT    = +38:25:59.160
# RA        = 04:18:09.400
# DEC       = +38:20:18.500
# GALLON    = 161:25:29.00
# GALLAT    = -08:37:35.80
# ALT_SUN   = +73:15:30.6
# AZ_SUN    = +174:01:18.9
# ETAA      = 0.8
# ETAB      = 0.99
# POLANGLE  = 0.0
# TELSIZEAM = 1.0
# TELSIZEBM = 1.0
# AST_VERS  = 05.01
0000 1418501464 14.8047
0001 1418504394 15.0484
0002 1418507324 14.7738
0003 1418510253 14.9340
0004 1418513183 15.1788
0005 1418516113 14.9167
0006 1418519042 14.7465
0007 1418521972 14.9118
0008 1418524902 14.9543
0009 1418527832 15.0058
0010 1418530761 14.9957
0011 1418533691 15.3693
0012 1418536621 15.1308
0013 1418539550 15.3595
0014 1418542480 15.3570
0015 1418545410 15.3085
0016 1418548339 15.5843
0017 1418551269 15.5623
0018 1418554199 15.7109
0019 1418557128 15.8210
0020 1418560058 15.8114
0021 1418562988 15.8813
0022 1418565917 16.1718
0023 1418568847 16.1744
0024 1418571777 16.5356
0025 1418574707 16.7687
0026 1418577636 16.8264
0027 1418580566 16.7875
0028 1418583496 17.1121
0029 1418586425 17.4117
0030 1418589355 17.7800
0031 1418592285 17.8484
0032 1418595214 17.8711
0033 1418598144 18.0615
0034 1418601074 18.4474
0035 1418604003 18.6184
0036 1418606933 18.7596
0037 1418609863 19.0434
0038 1418612792 19.4310
0039 1418615722 19.9732
0040 1418618652 19.9171
0041 1418621582 20.4221
0042 1418624511 20.6197
0043 1418627441 21.1261
0044 1418630371 21.1043
0045 1418633300 21.4815
0046 1418636230 21.7962
0047 1418639160 22.3149
0048 1418642089 22.5092
0049 1418645019 22.5027
0050 1418647949 22.9573
0051 1418650878 23.3761
0052 1418653808 23.5147
0053 1418656738 23.9607
0054 1418659667 24.4950
0055 1418662597 24.5934
0056 1418665527 24.9768
0057 1418668457 25.7967
0058 1418671386 26.0998
0059 1418674316 26.3406
0060 1418677246 26.8043
0061 1418680175 26.9240
0062 1418683105 27.3368
0063 1418686035 27.9391
0064 1418688964 28.5301
0065 1418691894 28.5014
0066 1418694824 29.1459
0067 1418697753 29.7129
0068 1418700683 29.6880
0069 1418703613 30.5814
0070 1418706542 30.9715
0071 1418709472 31.7241
0072 1418712402 32.2042
0073 1418715332 32.4369
0074 1418718261 33.1145
0075 1418721191 32.9245
0076 1418724121 33.5125
0077 1418727050 34.3245
0078 1418729980 35.0969
0079 1418732910 35.3441
0080 1418735839 36.1186
0081 1418738769 36.3833
0082 1418741699 36.7537
0083 1418744628 37.5271
0084 1418747558 38.1785
0085 1418750488 38.5507
0086 1418753417 39.5029
0087 1418756347 38.9183
0088 1418759277 39.9660
0089 1418762207 40.6836
0090 1418765136 41.0040
0091 1418768066 41.4170
0092 1418770996 42.1729
0093 1418773925 42.6793
0094 1418776855 43.0228
0095 1418779785 43.8488
0096 1418782714 43.9219
0097 1418785644 44.9561
0098 1418788574 45.2907
0099 1418791503 46.4238
0100 1418794433 46.4505
0101 1418797363 47.1554
0102 1418800292 46.8671
0103 1418803222 48.3863
0104 1418806152 48.0565
0105 1418809082 48.9159
0106 1418812011 49.9483
0107 1418814941 49.8658
0108 1418817871 50.4211
0109 1418820800 50.6278
0110 1418823730 52.8304
0111 1418826660 52.7189
0112 1418829589 53.2761
0113 1418832519 53.5600
0114 1418835449 54.4815
0115 1418838378 56.0191
0116 1418841308 55.5142
0117 1418844238 55.9245
0118 1418847167 56.5454
0119 1418850097 57.8026
0120 1418853027 57.3310
0121 1418855957 57.9648
0122 1418858886 59.3176
0123 1418861816 60.0484
0124 1418864746 60.1795
0125 1418867675 61.5507
0126 1418870605 60.8622
0127 1418873535 61.3116
0128 1418876464 61.4935
0129 1418879394 63.2790
0130 1418882324 62.8104
0131 1418885253 64.6934
0132 1418888183 64.9379
0133 1418891113 65.4604
0134 1418894042 65.5482
0135 1418896972 65.8563
0136 1418899902 66.8823
0137 1418902832 67.5048
0138 1418905761 67.9419
0139 1418908691 68.4127
0140 1418911621 68.6926
0141 1418914550 70.5547
0142 1418917480 70.1102
0143 1418920410 70.4566
0144 1418923339 70.9448
0145 1418926269 71.9704
0146 1418929199 71.9802
0147 1418932128 72.4910
0148 1418935058 72.8042
0149 1418937988 72.9911
0150 1418940917 74.2477
0151 1418943847 75.6497
0152 1418946777 74.5457
0153 1418949707 75.0077
0154 1418952636 75.6138
0155 1418955566 75.7713
0156 1418958496 76.5959
0157 1418961425 77.1419
0158 1418964355 77.6883
0159 1418967285 79.5830
0160 1418970214 79.3786
0161 1418973144 80.1505
0162 1418976074 79.4376
0163 1418979003 80.4866
0164 1418981933 81.5858
0165 1418984863 81.1488
0166 1418987792 81.4438
0167 1418990722 82.7796
0168 1418993652 82.2894
0169 1418996582 83.1391
0170 1418999511 83.0790
0171 1419002441 83.9133
0172 1419005371 84.9728
0173 1419008300 84.2710
0174 1419011230 84.8131
0175 1419014160 85.6184
0176 1419017089 86.2757
0177 1419020019 87.4283
0178 1419022949 86.5425
0179 1419025878 86.7662
0180 1419028808 87.1977
0181 1419031738 87.2040
0182 1419034667 89.5377
0183 1419037597 88.0889
0184 1419040527 88.5906
0185 1419043457 89.9010
0186 1419046386 90.1587
0187 1419049316 90.5346
0188 1419052246 91.2405
0189 1419055175 91.3395
0190 1419058105 91.1192
0191 1419061035 92.7232
0192 1419063964 90.5551
0193 1419066894 91.7273
0194 1419069824 92.8197
0195 1419072753 93.1826
0196 1419075683 92.3382
0197 1419078613 94.6575
0198 1419081542 93.4053
0199 1419084472 94.8855
0200 1419087402 94.1259
0201 1419090332 94.8431
0202 1419093261 95.0102
0203 1419096191 94.3214
0204 1419099121 96.5746
0205 1419102050 96.0595
0206 1419104980 96.9035
0207 1419107910 96.4104
0208 1419110839 97.1250
0209 1419113769 97.4591
0210 1419116699 98.0003
0211 1419119628 97.8731
0212 1419122558 96.3229
0213 1419125488 97.7401
0214 1419128417 97.9769
0215 1419131347 99.3489
0216 1419134277 100.0983
0217 1419137207 98.4837
0218 1419140136 98.9648
0219 1419143066 99.2341
0220 1419145996 100.5792
0221 1419148925 100.8806
0222 1419151855 99.5010
0223 1419154785 99.4115
0224 1419157714 100.3008
0225 1419160644 100.8361
0226 1419163574 100.4656
0227 1419166503 99.9991
0228 1419169433 100.1722
0229 1419172363 101.3197
0230 1419175292 100.7738
0231 1419178222 101.4442
0232 1419181152 100.5938
0233 1419184082 102.4404
0234 1419187011 102.8444
0235 1419189941 102.9563
0236 1419192871 102.2712
0237 1419195800 101.8838
0238 1419198730 103.7751
0239 1419201660 103.2759
0240 1419204589 102.8633
0241 1419207519 103.1159
0242 1419210449 104.7730
0243 1419213378 102.6473
0244 1419216308 102.1479
0245 1419219238 101.4515
0246 1419222167 103.6076
0247 1419225097 104.1668
0248 1419228027 105.2864
0249 1419230957 104.2768
0250 1419233886 105.7898
0251 1419236816 103.8725
0252 1419239746 103.8516
0253 1419242675 104.7966
0254 1419245605 105.4114
0255 1419248535 104.6680
0256 1419251464 103.4546
0257 1419254394 104.0532
0258 1419257324 106.4190
0259 1419260253 104.4780
0260 1419263183 103.5377
0261 1419266113 104.1796
0262 1419269042 104.9510
0263 1419271972 105.0356
0264 1419274902 105.2490
0265 1419277832 105.7448
0266 1419280761 105.3295
0267 1419283691 104.3065
0268 1419286621 105.5341
0269 1419289550 105.7596
0270 1419292480 105.8182
0271 1419295410 105.7477
0272 1419298339 106.2279
0273 1419301269 106.1579
0274 1419304199 106.9134
0275 1419307128 105.3559
0276 1419310058 105.5196
0277 1419312988 106.6646
0278 1419315917 107.5329
0279 1419318847 106.1604
0280 1419321777 105.7922
0281 1419324707 106.2807
0282 1419327636 105.3829
0283 1419330566 106.3577
0284 1419333496 107.5030
0285 1419336425 107.4128
0286 1419339355 107.3049
0287 1419342285 106.3205
0288 1419345214 107.6260
0289 1419348144 107.1226
0290 1419351074 107.8229
0291 1419354003 107.0642
0292 1419356933 106.6788
0293 1419359863 106.8932
0294 1419362792 107.4445
0295 1419365722 107.4788
0296 1419368652 107.9942
0297 1419371582 107.6883
0298 1419374511 107.5794
0299 1419377441 107.9236
0300 1419380371 107.8733
0301 1419383300 108.5808
0302 1419386230 109.7669
0303 1419389160 108.6307
0304 1419392089 108.4516
0305 1419395019 108.8453
0306 1419397949 107.9737
0307 1419400878 108.2992
0308 1419403808 108.2064
0309 1419406738 108.5545
0310 1419409667 109.3483
0311 1419412597 109.7786
0312 1419415527 109.0673
0313 1419418457 108.6509
0314 1419421386 109.7639
0315 1419424316 109.6116
0316 1419427246 108.1601
0317 1419430175 108.9232
0318 1419433105 110.1108
0319 1419436035 109.1636
0320 1419438964 108.9318
0321 1419441894 108.4940
0322 1419444824 110.7444
0323 1419447753 110.4053
0324 1419450683 110.1833
0325 1419453613 110.0431
0326 1419456542 110.6461
0327 1419459472 111.0028
0328 1419462402 110.7604
0329 1419465332 111.8853
0330 1419468261 110.8195
0331 1419471191 109.6910
0332 1419474121 109.5151
0333 1419477050 111.3318
0334 1419479980 111.0332
0335 1419482910 112.4512
0336 1419485839 112.0581
0337 1419488769 112.7437
0338 1419491699 111.6409
0339 1419494628 113.3704
0340 1419497558 112.8952
0341 1419500488 111.2996
0342 1419503417 112.7826
0343 1419506347 112.7100
0344 1419509277 113.8998
0345 1419512207 113.2732
0346 1419515136 113.7343
0347 1419518066 112.3396
0348 1419520996 113.1768
0349 1419523925 113.6150
0350 1419526855 114.4940
0351 1419529785 114.7900
0352 1419532714 112.6422
0353 1419535644 116.1990
0354 1419538574 114.1563
0355 1419541503 115.2144
0356 1419544433 114.1668
0357 1419547363 114.4913
0358 1419550292 115.5268
0359 1419553222 117.2171
0360 1419556152 116.1365
0361 1419559082 115.5588
0362 1419562011 116.0163
0363 1419564941 116.9347
0364 1419567871 117.0608
0365 1419570800 116.2815
0366 1419573730 115.8435
0367 1419576660 117.4657
0368 1419579589 117.0966
0369 1419582519 117.7237
0370 1419585449 118.7364
0371 1419588378 117.5996
0372 1419591308 117.2088
0373 1419594238 117.6677
0374 1419597167 117.1851
0375 1419600097 118.2840
0376 1419603027 120.0755
0377 1419605957 120.5436
0378 1419608886 118.8777
0379 1419611816 119.8674
0380 1419614746 122.3584
0381 1419617675 120.6278
0382 1419620605 119.2651
0383 1419623535 120.6687
0384 1419626464 122.2135
0385 1419629394 123.7624
0386 1419632324 121.9849
0387 1419635253 119.8542
0388 1419638183 121.0770
0389 1419641113 121.0833
0390 1419644042 121.2553
0391 1419646972 123.0500
0392 1419649902 123.4571
0393 1419652832 123.6020
0394 1419655761 123.1358
0395 1419658691 128.8526
0396 1419661621 124.7876
0397 1419664550 124.1116
0398 1419667480 122.6698
0399 1419670410 124.5442
0400 1419673339 126.1973
0401 1419676269 124.7567
0402 1419679199 125.0899
0403 1419682128 126.5334
0404 1419685058 125.8913
0405 1419687988 125.8869
0406 1419690917 125.3632
0407 1419693847 127.4755
0408 1419696777 127.4487
0409 1419699707 128.2793
0410 1419702636 127.8512
0411 1419705566 128.0026
0412 1419708496 128.1534
0413 1419711425 129.2975
0414 1419714355 130.2288
0415 1419717285 129.3931
0416 1419720214 129.0785
0417 1419723144 131.3895
0418 1419726074 130.1985
0419 1419729003 130.3115
0420 1419731933 129.8083
0421 1419734863 129.7506
0422 1419737792 129.5182
0423 1419740722 130.4377
0424 1419743652 132.2471
0425 1419746582 131.9393
0426 1419749511 131.7891
0427 1419752441 132.0923
0428 1419755371 131.2357
0429 1419758300 132.4267
0430 1419761230 135.8003
0431 1419764160 133.0955
0432 1419767089 132.7271
0433 1419770019 131.1964
0434 1419772949 133.7489
0435 1419775878 131.7506
0436 1419778808 136.2837
0437 1419781738 135.1965
0438 1419784667 135.9979
0439 1419787597 133.5976
0440 1419790527 133.9803
0441 1419793457 135.7963
0442 1419796386 136.6482
0443 1419799316 134.1414
0444 1419802246 136.5078
0445 1419805175 134.9314
0446 1419808105 137.3521
0447 1419811035 137.4152
0448 1419813964 137.1882
0449 1419816894 137.3142
0450 1419819824 138.0270
0451 1419822753 136.8904
0452 1419825683 140.4946
0453 1419828613 139.4493
0454 1419831542 137.7328
0455 1419834472 137.6490
0456 1419837402 138.4231
0457 1419840332 138.5367
0458 1419843261 140.4790
0459 1419846191 140.6128
0460 1419849121 143.0519
0461 1419852050 141.7915
0462 1419854980 140.1077
0463 1419857910 141.6242
0464 1419860839 141.9184
0465 1419863769 141.6711
0466 1419866699 141.4164
0467 1419869628 142.4858
0468 1419872558 142.4912
0469 1419875488 143.0852
0470 1419878417 144.3813
0471 1419881347 143.5503
0472 1419884277 142.8058
0473 1419887207 141.2093
0474 1419890136 143.8433
0475 1419893066 144.0866
0476 1419895996 142.3694
0477 1419898925 145.6986
0478 1419901855 145.5448
0479 1419904785 142.7892
0480 1419907714 145.7698
0481 1419910644 145.9342
0482 1419913574 146.4960
0483 1419916503 145.0459
0484 1419919433 143.8239
0485 1419922363 145.6550
0486 1419925292 144.9772
0487 1419928222 147.1079
0488 1419931152 147.9150
0489 1419934082 146.4342
0490 1419937011 145.7699
0491 1419939941 147.7447
0492 1419942871 147.6717
0493 1419945800 148.2892
0494 1419948730 150.4942
0495 1419951660 147.2947
0496 1419954589 149.4902
0497 1419957519 147.8159
0498 1419960449 148.6628
0499 1419963378 148.8867
0500 1419966308 150.7735
0501 1419969238 149.8680
0502 1419972167 150.9328
0503 1419975097 152.7086
0504 1419978027 150.3731
0505 1419980957 152.3937
0506 1419983886 154.3772
0507 1419986816 157.0685
0508 1419989746 155.7623
0509 1419992675 163.3312
0510 1419995605 170.7263
0511 1419998535 192.7154
0512 1420001464 243.0272
0513 1420004394 195.4875
0514 1420007324 166.4222
0515 1420010253 160.1026
0516 1420013183 156.3723
0517 1420016113 155.6222
0518 1420019042 155.0130
0519 1420021972 154.4428
0520 1420024902 154.5636
0521 1420027832 152.6769
0522 1420030761 151.3131
0523 1420033691 151.6517
0524 1420036621 149.4012
0525 1420039550 149.5026
0526 1420042480 151.1661
0527 1420045410 150.4349
0528 1420048339 150.9669
0529 1420051269 150.2125
0530 1420054199 150.8121
0531 1420057128 150.9352
0532 1420060058 150.5645
0533 1420062988 149.7757
0534 1420065917 151.4579
0535 1420068847 148.6147
0536 1420071777 149.3538
0537 1420074707 149.0860
0538 1420077636 149.8033
0539 1420080566 148.5433
0540 1420083496 147.5632
0541 1420086425 149.4359
0542 1420089355 147.7981
0543 1420092285 148.5404
0544 1420095214 148.2491
0545 1420098144 148.5478
0546 1420101074 147.4272
0547 1420104003 148.7077
0548 1420106933 148.0805
0549 1420109863 149.1458
0550 1420112792 146.2093
0551 1420115722 146.8073
0552 1420118652 146.7311
0553 1420121582 147.8734
0554 1420124511 147.3874
0555 1420127441 147.3507
0556 1420130371 148.6141
0557 1420133300 147.2266
0558 1420136230 147.6367
0559 1420139160 146.0530
0560 1420142089 146.5409
0561 1420145019 145.2458
0562 1420147949 147.0576
0563 1420150878 145.3296
0564 1420153808 147.1334
0565 1420156738 145.7082
0566 1420159667 146.0536
0567 1420162597 144.7511
0568 1420165527 146.8575
0569 1420168457 146.4340
0570 1420171386 146.4987
0571 1420174316 144.7959
0572 1420177246 147.8880
0573 1420180175 145.3578
0574 1420183105 146.1971
0575 1420186035 144.2387
0576 1420188964 145.8103
0577 1420191894 144.0180
0578 1420194824 143.8986
0579 1420197753 145.6484
0580 1420200683 145.5849
0581 1420203613 144.7718
0582 1420206542 147.8101
0583 1420209472 146.6142
0584 1420212402 147.5794
0585 1420215332 144.9380
0586 1420218261 145.4460
0587 1420221191 145.3385
0588 1420224121 144.3990
0589 1420227050 145.4188
0590 1420229980 146.7074
0591 1420232910 146.2257
0592 1420235839 145.5060
0593 1420238769 147.4951
0594 1420241699 146.1530
0595 1420244628 146.3943
0596 1420247558 146.2253
0597 1420250488 147.6918
0598 1420253417 147.6354
0599 1420256347 147.2233
0600 1420259277 146.1303
0601 1420262207 146.7303
0602 1420265136 150.3399
0603 1420268066 147.8133
0604 1420270996 148.3516
0605 1420273925 146.6731
0606 1420276855 146.8783
0607 1420279785 149.3021
0608 1420282714 148.6750
0609 1420285644 149.8786
0610 1420288574 149.6972
0611 1420291503 149.8596
0612 1420294433 150.1489
0613 1420297363 150.0135
0614 1420300292 150.8351
0615 1420303222 150.5104
0616 1420306152 148.1367
0617 1420309082 148.6859
0618 1420312011 150.9703
0619 1420314941 148.8783
0620 1420317871 151.8615
0621 1420320800 150.0802
0622 1420323730 149.7170
0623 1420326660 151.2612
0624 1420329589 149.5885
0625 1420332519 150.0929
0626 1420335449 149.1889
0627 1420338378 149.0765
0628 1420341308 148.8958
0629 1420344238 149.2375
0630 1420347167 148.3591
0631 1420350097 149.2560
0632 1420353027 147.5368
0633 1420355957 148.5753
0634 1420358886 147.5110
0635 1420361816 147.0996
0636 1420364746 147.8164
0637 1420367675 146.4900
0638 1420370605 145.0441
0639 1420373535 145.9528
0640 1420376464 144.8436
0641 1420379394 145.3728
0642 1420382324 145.2633
0643 1420385253 144.1160
0644 1420388183 146.3676
0645 1420391113 146.6514
0646 1420394042 145.0563
0647 1420396972 143.9137
0648 1420399902 144.9743
0649 1420402832 146.7673
0650 1420405761 145.3060
0651 1420408691 144.5826
0652 1420411621 143.8509
0653 1420414550 142.4578
0654 1420417480 141.3302
0655 1420420410 142.2128
0656 1420423339 142.3891
0657 1420426269 140.8654
0658 1420429199 140.5925
0659 1420432128 139.6437
0660 1420435058 140.9080
0661 1420437988 139.9272
0662 1420440917 137.5896
0663 1420443847 139.5925
0664 1420446777 139.5895
0665 1420449707 139.2412
0666 1420452636 137.4125
0667 1420455566 137.2238
0668 1420458496 137.9610
0669 1420461425 135.8366
0670 1420464355 136.8905
0671 1420467285 136.0223
0672 1420470214 135.4226
0673 1420473144 135.4485
0674 1420476074 135.4248
0675 1420479003 135.9456
0676 1420481933 134.3056
0677 1420484863 134.5087
0678 1420487792 133.1047
0679 1420490722 132.6030
0680 1420493652 134.0784
0681 1420496582 133.9145
0682 1420499511 133.2133
0683 1420502441 132.8435
0684 1420505371 131.4880
0685 1420508300 131.2972
0686 1420511230 131.6850
0687 1420514160 131.0429
0688 1420517089 131.1794
0689 1420520019 131.2309
0690 1420522949 130.7456
0691 1420525878 130.9614
0692 1420528808 130.5618
0693 1420531738 129.4953
0694 1420534667 129.9467
0695 1420537597 130.2939
0696 1420540527 129.7283
0697 1420543457 129.6684
0698 1420546386 127.8304
0699 1420549316 129.2939
0700 1420552246 128.8020
0701 1420555175 128.8431
0702 1420558105 128.3540
0703 1420561035 126.4004
0704 1420563964 126.3791
0705 1420566894 126.7695
0706 1420569824 127.5839
0707 1420572753 127.4875
0708 1420575683 126.5608
0709 1420578613 127.4991
0710 1420581542 126.8086
0711 1420584472 126.8720
0712 1420587402 124.9703
0713 1420590332 125.4809
0714 1420593261 125.6887
0715 1420596191 125.8377
0716 1420599121 125.4350
0717 1420602050 126.5292
0718 1420604980 124.6592
0719 1420607910 125.1129
0720 1420610839 124.4672
0721 1420613769 124.9005
0722 1420616699 125.7361
0723 1420619628 124.9329
0724 1420622558 123.8720
0725 1420625488 124.8637
0726 1420628417 124.4552
0727 1420631347 123.8214
0728 1420634277 123.7744
0729 1420637207 124.1354
0730 1420640136 125.0367
0731 1420643066 123.7088
0732 1420645996 124.6475
0733 1420648925 124.5725
0734 1420651855 123.4395
0735 1420654785 123.7682
0736 1420657714 122.9528
0737 1420660644 122.4835
0738 1420663574 122.7845
0739 1420666503 122.5284
0740 1420669433 123.7825
0741 1420672363 123.5752
0742 1420675292 123.2163
0743 1420678222 121.9268
0744 1420681152 122.9346
0745 1420684082 121.5119
0746 1420687011 121.6708
0747 1420689941 121.2458
0748 1420692871 123.3610
0749 1420695800 120.9824
0750 1420698730 123.0055
0751 1420701660 123.3866
0752 1420704589 121.3029
0753 1420707519 122.4362
0754 1420710449 122.7249
0755 1420713378 120.7567
0756 1420716308 123.2224
0757 1420719238 121.8560
0758 1420722167 122.0335
0759 1420725097 120.0183
0760 1420728027 121.0491
0761 1420730957 122.9380
0762 1420733886 122.6814
0763 1420736816 121.5682
0764 1420739746 121.6205
0765 1420742675 122.4715
0766 1420745605 121.4113
0767 1420748535 120.9415
0768 1420751464 120.8896
0769 1420754394 119.6190
0770 1420757324 119.7962
0771 1420760253 122.2714
0772 1420763183 121.3797
0773 1420766113 120.9159
0774 1420769042 121.0895
0775 1420771972 120.5167
0776 1420774902 120.5976
0777 1420777832 121.6114
0778 1420780761 120.8251
0779 1420783691 120.7040
0780 1420786621 120.4883
0781 1420789550 120.2671
0782 1420792480 119.7419
0783 1420795410 120.4376
0784 1420798339 118.8659
0785 1420801269 126.8093
0786 1420804199 123.6883
0787 1420807128 116.9783
0788 1420810058 117.7219
0789 1420812988 119.5197
0790 1420815917 119.5607
0791 1420818847 118.1811
0792 1420821777 118.7749
0793 1420824707 117.7839
0794 1420827636 118.3169
0795 1420830566 117.9350
0796 1420833496 117.5721
0797 1420836425 115.8115
0798 1420839355 116.1517
0799 1420842285 116.8986
0800 1420845214 117.7967
0801 1420848144 117.2311
0802 1420851074 116.8946
0803 1420854003 116.0014
0804 1420856933 116.9406
0805 1420859863 113.4962
0806 1420862792 115.9264
0807 1420865722 115.9682
0808 1420868652 115.0659
0809 1420871582 114.9085
0810 1420874511 115.4432
0811 1420877441 114.8054
0812 1420880371 114.4708
0813 1420883300 114.8715
0814 1420886230 113.4027
0815 1420889160 114.1590
0816 1420892089 111.6711
0817 1420895019 112.4927
0818 1420897949 113.2603
0819 1420900878 114.2879
0820 1420903808 112.9986
0821 1420906738 112.7613
0822 1420909667 111.8946
0823 1420912597 111.6404
0824 1420915527 111.4948
0825 1420918457 109.9814
0826 1420921386 110.4158
0827 1420924316 110.3017
0828 1420927246 110.2839
0829 1420930175 109.0485
0830 1420933105 110.1238
0831 1420936035 108.9720
0832 1420938964 107.5913
0833 1420941894 107.9285
0834 1420944824 107.0883
0835 1420947753 107.5114
0836 1420950683 106.8308
0837 1420953613 106.1737
0838 1420956542 105.9790
0839 1420959472 104.9349
0840 1420962402 104.3457
0841 1420965332 103.6252
0842 1420968261 103.6715
0843 1420971191 103.3011
0844 1420974121 103.9551
0845 1420977050 103.0976
0846 1420979980 102.7855
0847 1420982910 102.7019
0848 1420985839 101.3405
0849 1420988769 101.0560
0850 1420991699 101.2928
0851 1420994628 100.4349
0852 1420997558 99.9816
0853 1421000488 99.0623
0854 1421003417 98.6734
0855 1421006347 98.3917
0856 1421009277 99.2537
0857 1421012207 96.9437
0858 1421015136 96.3636
0859 1421018066 97.5032
0860 1421020996 95.6585
0861 1421023925 93.4117
0862 1421026855 94.7398
0863 1421029785 94.7561
0864 1421032714 95.1346
0865 1421035644 92.9732
0866 1421038574 91.8233
0867 1421041503 92.9585
0868 1421044433 92.1047
0869 1421047363 91.6674
0870 1421050292 90.7917
0871 1421053222 89.6638
0872 1421056152 88.8949
0873 1421059082 88.9920
0874 1421062011 87.6397
0875 1421064941 87.7113
0876 1421067871 85.4623
0877 1421070800 86.8452
0878 1421073730 85.1522
0879 1421076660 83.9875
0880 1421079589 83.0745
0881 1421082519 83.5243
0882 1421085449 82.1002
0883 1421088378 83.1289
0884 1421091308 82.8529
0885 1421094238 80.4729
0886 1421097167 80.9984
0887 1421100097 79.5683
0888 1421103027 78.6649
0889 1421105957 79.0138
0890 1421108886 77.2733
0891 1421111816 77.1998
0892 1421114746 76.8026
0893 1421117675 76.5220
0894 1421120605 75.0551
0895 1421123535 74.4784
0896 1421126464 73.6568
0897 1421129394 73.3239
0898 1421132324 73.4782
0899 1421135253 73.0212
0900 1421138183 71.4515
0901 1421141113 69.9522
0902 1421144042 70.2648
0903 1421146972 68.8884
0904 1421149902 68.3579
0905 1421152832 68.3644
0906 1421155761 67.0627
0907 1421158691 66.6619
0908 1421161621 66.0122
0909 1421164550 65.1347
0910 1421167480 64.6911
0911 1421170410 63.2425
0912 1421173339 62.7501
0913 1421176269 61.7070
0914 1421179199 62.5018
0915 1421182128 61.5871
0916 1421185058 60.7760
0917 1421187988 59.9124
0918 1421190917 59.0021
0919 1421193847 58.3396
0920 1421196777 57.4861
0921 1421199707 56.9083
0922 1421202636 56.6015
0923 1421205566 55.4049
0924 1421208496 54.8561
0925 1421211425 55.0493
0926 1421214355 54.1964
0927 1421217285 53.9297
0928 1421220214 52.6669
0929 1421223144 51.1843
0930 1421226074 51.6447
0931 1421229003 50.2443
0932 1421231933 49.1785
0933 1421234863 49.1338
0934 1421237792 48.5221
0935 1421240722 48.3341
0936 1421243652 47.2598
0937 1421246582 46.8818
0938 1421249511 46.7477
0939 1421252441 45.4936
0940 1421255371 44.4817
0941 1421258300 44.1132
0942 1421261230 43.5005
0943 1421264160 43.3524
0944 1421267089 42.8950
0945 1421270019 41.7770
0946 1421272949 41.2668
0947 1421275878 40.3632
0948 1421278808 39.7470
0949 1421281738 39.0140
0950 1421284667 38.8660
0951 1421287597 38.3054
0952 1421290527 37.7777
0953 1421293457 37.1860
0954 1421296386 36.2828
0955 1421299316 36.3114
0956 1421302246 35.4152
0957 1421305175 34.8207
0958 1421308105 34.4269
0959 1421311035 33.5568
0960 1421313964 33.3818
0961 1421316894 33.4370
0962 1421319824 32.7353
0963 1421322753 31.5320
0964 1421325683 31.7813
0965 1421328613 30.8289
0966 1421331542 30.2785
0967 1421334472 29.9892
0968 1421337402 29.6150
0969 1421340332 28.6192
0970 1421343261 28.5040
0971 1421346191 28.0152
0972 1421349121 27.3077
0973 1421352050 27.1030
0974 1421354980 26.5428
0975 1421357910 26.0600
0976 1421360839 26.0338
0977 1421363769 25.6374
0978 1421366699 24.9137
0979 1421369628 24.4483
0980 1421372558 24.3148
0981 1421375488 23.7165
0982 1421378417 23.5495
0983 1421381347 23.3613
0984 1421384277 22.7857
0985 1421387207 22.1445
0986 1421390136 22.1282
0987 1421393066 21.8981
0988 1421395996 21.5873
0989 1421398925 21.2114
0990 1421401855 20.9481
0991 1421404785 20.4792
0992 1421407714 20.3571
0993 1421410644 19.6470
0994 1421413574 19.6776
0995 1421416503 19.2173
0996 1421419433 19.1404
0997 1421422363 18.8352
0998 1421425292 18.4763
0999 1421428222 18.0279
1000 1421431152 18.0049
1001 1421434082 17.8639
1002 1421437011 17.6153
1003 1421439941 17.5928
1004 1421442871 17.3495
1005 1421445800 17.2289
1006 1421448730 16.8519
1007 1421451660 16.7738
1008 1421454589 16.4209
1009 1421457519 16.2937
1010 1421460449 16.3586
1011 1421463378 16.1314
1012 1421466308 15.9558
1013 1421469238 15.8046
1014 1421472167 15.7614
1015 1421475097 15.5122
1016 1421478027 15.3335
1017 1421480957 15.3981
1018 1421483886 15.1145
1019 1421486816 15.1299
1020 1421489746 15.0569
1021 1421492675 15.0636
1022 1421495605 14.9990
1023 1421498535 14.9979
