# File: 20-05-29T170844.ast
# NOTEA     = None Attached.  RTLSDR Dongle Test
# NOTEB     = Spectral Integration
# OBSERVER  = Science Aficionado
# DEVICE    = rtl=0,bias=1
# DATADIR   = ../data/
# SITE      = Small Metal Horn - NeSDR Test
# CITY      = Green Bank
# REGION    = West Virginia
# COUNTRY   = US
# TELTYPE   = Bubble Wrap  Horn
# FRAME     = TOPO
# GAIN1     = 40.0
# GAIN2     = 11.0
# GAIN3     = 11.0
# GAIN4     = 0.0
# Count     = 2500
# CenterFreq= 1420000000.0
# Bandwidth = 3000000.0
# Duration  = 21.833445
# DeltaX    = 5859.375
# TSYS      = 200.0
# TRX       = 100.0
# TRMS      = 2.0
# TINT      = 1.0
# KPERC     = 100.0
# GAINFACT  = 1.0
# BUNIT     = Counts
# NCHAN     = 1024
# NSPEC     = 1
# NTIME     = 0
# NSAMPLES  = 0
# EPEAK     = 4.10875183718
# ERMS      = 0.995973393526
# EMJD      = 58568.808999981004 
# REFCHAN   = 512.0
# REFSAMPL  = 256.0
# NAVE      = 50
# NMEDIAN   = 1024
# Fft_rate  = 5000
# UTC       = 2020-05-29 17:08:44.719196
# SECONDS   =       0.0000000000 
# LST       = 04:20:07.080
# AZ        = 180.0
# EL        = 90.0
# TELLON    = -79:50:22.920
# TELLAT    = +38:25:59.160
# RA        = 04:17:25.640
# DEC       = +38:20:16.200
# GALLON    = 161:19:21.50
# GALLAT    = -08:43:40.60
# ALT_SUN   = +73:14:34.3
# AZ_SUN    = +173:26:16.4
# ETAA      = 0.8
# ETAB      = 0.99
# POLANGLE  = 0.0
# TELSIZEAM = 1.0
# TELSIZEBM = 1.0
# AST_VERS  = 05.01
0000 1418501464 15.0086
0001 1418504394 14.9833
0002 1418507324 15.0834
0003 1418510253 14.8992
0004 1418513183 14.6792
0005 1418516113 14.9137
0006 1418519042 14.8524
0007 1418521972 14.8322
0008 1418524902 15.0463
0009 1418527832 15.0752
0010 1418530761 14.8808
0011 1418533691 15.0325
0012 1418536621 15.1491
0013 1418539550 15.2219
0014 1418542480 15.2161
0015 1418545410 15.2741
0016 1418548339 15.4637
0017 1418551269 15.5830
0018 1418554199 15.6759
0019 1418557128 16.0016
0020 1418560058 15.8697
0021 1418562988 16.1277
0022 1418565917 16.2776
0023 1418568847 16.2674
0024 1418571777 16.3931
0025 1418574707 16.3034
0026 1418577636 16.9769
0027 1418580566 16.9074
0028 1418583496 17.3074
0029 1418586425 17.5706
0030 1418589355 17.3678
0031 1418592285 17.6484
0032 1418595214 18.0704
0033 1418598144 18.1932
0034 1418601074 18.5599
0035 1418604003 18.7347
0036 1418606933 18.7596
0037 1418609863 19.3421
0038 1418612792 19.3177
0039 1418615722 20.0417
0040 1418618652 19.9662
0041 1418621582 20.0589
0042 1418624511 20.8034
0043 1418627441 21.0998
0044 1418630371 20.9989
0045 1418633300 21.3220
0046 1418636230 22.0918
0047 1418639160 22.5101
0048 1418642089 22.5764
0049 1418645019 22.7033
0050 1418647949 23.2617
0051 1418650878 23.6103
0052 1418653808 23.9665
0053 1418656738 24.4742
0054 1418659667 24.6991
0055 1418662597 24.6374
0056 1418665527 25.5084
0057 1418668457 25.6732
0058 1418671386 26.1660
0059 1418674316 26.5118
0060 1418677246 26.7221
0061 1418680175 27.1352
0062 1418683105 27.3622
0063 1418686035 27.8401
0064 1418688964 28.3344
0065 1418691894 28.7308
0066 1418694824 29.5630
0067 1418697753 29.9731
0068 1418700683 30.3438
0069 1418703613 30.5214
0070 1418706542 31.2262
0071 1418709472 31.7436
0072 1418712402 32.0946
0073 1418715332 32.6415
0074 1418718261 32.9537
0075 1418721191 33.3396
0076 1418724121 33.8129
0077 1418727050 34.4249
0078 1418729980 34.5793
0079 1418732910 34.9970
0080 1418735839 36.0410
0081 1418738769 37.0533
0082 1418741699 37.2852
0083 1418744628 37.1607
0084 1418747558 37.7048
0085 1418750488 38.4521
0086 1418753417 38.7381
0087 1418756347 39.4085
0088 1418759277 39.9477
0089 1418762207 40.4217
0090 1418765136 41.3648
0091 1418768066 42.2191
0092 1418770996 42.1441
0093 1418773925 42.5591
0094 1418776855 42.6887
0095 1418779785 43.2570
0096 1418782714 44.4378
0097 1418785644 44.8284
0098 1418788574 44.4133
0099 1418791503 45.1523
0100 1418794433 46.3826
0101 1418797363 47.3559
0102 1418800292 47.6646
0103 1418803222 48.4414
0104 1418806152 47.9888
0105 1418809082 49.0219
0106 1418812011 50.2743
0107 1418814941 49.6772
0108 1418817871 50.7354
0109 1418820800 52.7458
0110 1418823730 51.5967
0111 1418826660 52.6965
0112 1418829589 53.3241
0113 1418832519 53.2661
0114 1418835449 54.2204
0115 1418838378 55.0488
0116 1418841308 55.7747
0117 1418844238 56.5027
0118 1418847167 56.4695
0119 1418850097 57.2396
0120 1418853027 57.2218
0121 1418855957 58.5471
0122 1418858886 59.3545
0123 1418861816 59.8708
0124 1418864746 60.1966
0125 1418867675 60.5174
0126 1418870605 61.0949
0127 1418873535 62.3336
0128 1418876464 62.1854
0129 1418879394 62.9276
0130 1418882324 63.7549
0131 1418885253 63.6846
0132 1418888183 63.7389
0133 1418891113 65.0205
0134 1418894042 65.8310
0135 1418896972 66.1282
0136 1418899902 66.2351
0137 1418902832 67.1227
0138 1418905761 67.6465
0139 1418908691 68.6443
0140 1418911621 68.9658
0141 1418914550 69.1146
0142 1418917480 70.0687
0143 1418920410 70.9255
0144 1418923339 70.9445
0145 1418926269 71.9435
0146 1418929199 72.0263
0147 1418932128 73.1464
0148 1418935058 74.7724
0149 1418937988 74.3113
0150 1418940917 74.0582
0151 1418943847 74.9430
0152 1418946777 74.8489
0153 1418949707 75.8853
0154 1418952636 77.1888
0155 1418955566 78.0420
0156 1418958496 78.1555
0157 1418961425 78.4750
0158 1418964355 79.5547
0159 1418967285 80.1055
0160 1418970214 80.1673
0161 1418973144 80.3214
0162 1418976074 79.8761
0163 1418979003 81.6257
0164 1418981933 81.8638
0165 1418984863 81.6036
0166 1418987792 81.8961
0167 1418990722 82.5610
0168 1418993652 82.8835
0169 1418996582 82.9511
0170 1418999511 83.9338
0171 1419002441 84.3917
0172 1419005371 84.6268
0173 1419008300 84.2007
0174 1419011230 85.8136
0175 1419014160 85.3571
0176 1419017089 85.0375
0177 1419020019 86.0841
0178 1419022949 86.7092
0179 1419025878 87.5163
0180 1419028808 87.8262
0181 1419031738 87.5179
0182 1419034667 88.8807
0183 1419037597 89.4824
0184 1419040527 88.7480
0185 1419043457 89.5834
0186 1419046386 89.3071
0187 1419049316 89.6207
0188 1419052246 91.5208
0189 1419055175 90.8689
0190 1419058105 91.2457
0191 1419061035 92.1414
0192 1419063964 92.3923
0193 1419066894 91.1245
0194 1419069824 91.8957
0195 1419072753 92.9640
0196 1419075683 94.0256
0197 1419078613 94.7161
0198 1419081542 94.0883
0199 1419084472 94.4078
0200 1419087402 94.9442
0201 1419090332 95.4056
0202 1419093261 95.7696
0203 1419096191 95.3496
0204 1419099121 97.5596
0205 1419102050 97.0241
0206 1419104980 96.0196
0207 1419107910 98.0597
0208 1419110839 97.4871
0209 1419113769 97.4724
0210 1419116699 98.7661
0211 1419119628 99.2294
0212 1419122558 97.9698
0213 1419125488 98.0123
0214 1419128417 98.5047
0215 1419131347 98.7073
0216 1419134277 97.6325
0217 1419137207 98.9975
0218 1419140136 98.4505
0219 1419143066 98.9414
0220 1419145996 100.6303
0221 1419148925 102.2515
0222 1419151855 99.9996
0223 1419154785 100.9364
0224 1419157714 100.8711
0225 1419160644 100.6453
0226 1419163574 100.2677
0227 1419166503 100.7624
0228 1419169433 100.6086
0229 1419172363 100.5480
0230 1419175292 101.8195
0231 1419178222 102.6185
0232 1419181152 103.0272
0233 1419184082 102.1561
0234 1419187011 102.4835
0235 1419189941 100.7323
0236 1419192871 102.4017
0237 1419195800 103.4537
0238 1419198730 103.3984
0239 1419201660 103.0661
0240 1419204589 103.4823
0241 1419207519 102.9421
0242 1419210449 101.7945
0243 1419213378 102.8949
0244 1419216308 104.6069
0245 1419219238 104.2398
0246 1419222167 103.7636
0247 1419225097 104.4554
0248 1419228027 103.0053
0249 1419230957 103.6338
0250 1419233886 104.8901
0251 1419236816 103.6321
0252 1419239746 104.5537
0253 1419242675 104.2542
0254 1419245605 104.2716
0255 1419248535 105.5281
0256 1419251464 103.7287
0257 1419254394 104.5878
0258 1419257324 103.9456
0259 1419260253 105.1469
0260 1419263183 104.4893
0261 1419266113 105.6321
0262 1419269042 104.9906
0263 1419271972 104.4557
0264 1419274902 104.2467
0265 1419277832 106.4205
0266 1419280761 104.9661
0267 1419283691 104.5067
0268 1419286621 105.9480
0269 1419289550 105.3069
0270 1419292480 104.9373
0271 1419295410 106.1867
0272 1419298339 106.0096
0273 1419301269 105.1427
0274 1419304199 104.9572
0275 1419307128 107.0474
0276 1419310058 107.5335
0277 1419312988 106.4430
0278 1419315917 106.5662
0279 1419318847 105.5971
0280 1419321777 106.1136
0281 1419324707 106.6826
0282 1419327636 106.7548
0283 1419330566 106.9727
0284 1419333496 105.6430
0285 1419336425 107.6098
0286 1419339355 105.9096
0287 1419342285 106.7926
0288 1419345214 106.4098
0289 1419348144 106.7736
0290 1419351074 107.8615
0291 1419354003 109.0425
0292 1419356933 107.3858
0293 1419359863 106.6037
0294 1419362792 106.4902
0295 1419365722 108.3069
0296 1419368652 108.0088
0297 1419371582 107.7846
0298 1419374511 107.6846
0299 1419377441 108.0748
0300 1419380371 108.2229
0301 1419383300 108.4512
0302 1419386230 108.7511
0303 1419389160 108.5359
0304 1419392089 110.4233
0305 1419395019 109.5084
0306 1419397949 108.5833
0307 1419400878 108.2524
0308 1419403808 108.9232
0309 1419406738 108.0987
0310 1419409667 106.8944
0311 1419412597 110.0666
0312 1419415527 108.8444
0313 1419418457 108.6046
0314 1419421386 109.5008
0315 1419424316 109.3356
0316 1419427246 109.8358
0317 1419430175 110.0465
0318 1419433105 111.2302
0319 1419436035 110.7011
0320 1419438964 111.3418
0321 1419441894 109.7644
0322 1419444824 107.9800
0323 1419447753 109.5337
0324 1419450683 110.4250
0325 1419453613 110.6652
0326 1419456542 109.6262
0327 1419459472 109.9237
0328 1419462402 110.0533
0329 1419465332 110.8461
0330 1419468261 110.3830
0331 1419471191 110.6671
0332 1419474121 110.9724
0333 1419477050 111.7422
0334 1419479980 110.7168
0335 1419482910 112.2428
0336 1419485839 112.5280
0337 1419488769 112.4965
0338 1419491699 111.4417
0339 1419494628 112.8605
0340 1419497558 112.1785
0341 1419500488 113.4371
0342 1419503417 112.1919
0343 1419506347 112.0192
0344 1419509277 110.5622
0345 1419512207 113.9094
0346 1419515136 113.6020
0347 1419518066 114.5060
0348 1419520996 114.0301
0349 1419523925 115.5787
0350 1419526855 114.3638
0351 1419529785 113.7740
0352 1419532714 114.4225
0353 1419535644 115.3558
0354 1419538574 115.7559
0355 1419541503 116.2104
0356 1419544433 113.4516
0357 1419547363 114.0791
0358 1419550292 115.9611
0359 1419553222 115.1405
0360 1419556152 115.2285
0361 1419559082 116.2602
0362 1419562011 114.8488
0363 1419564941 115.8142
0364 1419567871 116.0785
0365 1419570800 115.9921
0366 1419573730 114.6851
0367 1419576660 116.7655
0368 1419579589 117.6647
0369 1419582519 117.1774
0370 1419585449 117.3223
0371 1419588378 118.1627
0372 1419591308 118.5483
0373 1419594238 120.1507
0374 1419597167 119.7399
0375 1419600097 118.2357
0376 1419603027 119.0473
0377 1419605957 119.3656
0378 1419608886 119.9133
0379 1419611816 120.5963
0380 1419614746 119.9966
0381 1419617675 120.2746
0382 1419620605 119.1233
0383 1419623535 122.3789
0384 1419626464 121.7647
0385 1419629394 121.0127
0386 1419632324 122.4272
0387 1419635253 121.0292
0388 1419638183 121.0180
0389 1419641113 121.3574
0390 1419644042 121.3244
0391 1419646972 122.6259
0392 1419649902 123.3921
0393 1419652832 123.2246
0394 1419655761 126.0551
0395 1419658691 126.5995
0396 1419661621 125.7163
0397 1419664550 123.9801
0398 1419667480 125.3686
0399 1419670410 122.4388
0400 1419673339 125.4055
0401 1419676269 124.2805
0402 1419679199 124.7328
0403 1419682128 126.4129
0404 1419685058 126.9646
0405 1419687988 126.5915
0406 1419690917 124.7534
0407 1419693847 126.1726
0408 1419696777 129.0910
0409 1419699707 129.6283
0410 1419702636 126.5943
0411 1419705566 127.6596
0412 1419708496 128.5833
0413 1419711425 127.1323
0414 1419714355 128.0052
0415 1419717285 128.8285
0416 1419720214 129.5210
0417 1419723144 129.3628
0418 1419726074 131.0153
0419 1419729003 130.2298
0420 1419731933 131.6796
0421 1419734863 129.9640
0422 1419737792 131.5904
0423 1419740722 129.3907
0424 1419743652 131.3723
0425 1419746582 130.4237
0426 1419749511 129.7049
0427 1419752441 130.8687
0428 1419755371 132.4934
0429 1419758300 130.9917
0430 1419761230 133.0498
0431 1419764160 134.0874
0432 1419767089 134.4684
0433 1419770019 133.9637
0434 1419772949 135.6336
0435 1419775878 134.0083
0436 1419778808 133.4286
0437 1419781738 134.4762
0438 1419784667 134.9696
0439 1419787597 133.4442
0440 1419790527 134.8061
0441 1419793457 135.7284
0442 1419796386 138.9966
0443 1419799316 135.9454
0444 1419802246 135.4015
0445 1419805175 137.7669
0446 1419808105 135.8825
0447 1419811035 136.3095
0448 1419813964 137.1452
0449 1419816894 139.1364
0450 1419819824 139.8848
0451 1419822753 141.0405
0452 1419825683 139.9517
0453 1419828613 136.7605
0454 1419831542 138.4493
0455 1419834472 138.7887
0456 1419837402 137.1624
0457 1419840332 141.0021
0458 1419843261 139.7678
0459 1419846191 140.0646
0460 1419849121 141.2055
0461 1419852050 142.2527
0462 1419854980 139.7746
0463 1419857910 142.0142
0464 1419860839 142.1113
0465 1419863769 142.8426
0466 1419866699 142.2371
0467 1419869628 141.2725
0468 1419872558 143.8694
0469 1419875488 143.5082
0470 1419878417 142.3568
0471 1419881347 143.5397
0472 1419884277 142.1775
0473 1419887207 142.1798
0474 1419890136 141.8473
0475 1419893066 145.0718
0476 1419895996 142.4302
0477 1419898925 143.1001
0478 1419901855 144.7512
0479 1419904785 146.6576
0480 1419907714 145.6066
0481 1419910644 144.1773
0482 1419913574 145.5096
0483 1419916503 143.7090
0484 1419919433 145.3321
0485 1419922363 146.8643
0486 1419925292 146.9026
0487 1419928222 148.3640
0488 1419931152 147.9934
0489 1419934082 148.0312
0490 1419937011 148.7585
0491 1419939941 147.1622
0492 1419942871 146.9902
0493 1419945800 149.0532
0494 1419948730 149.2600
0495 1419951660 149.4861
0496 1419954589 149.3244
0497 1419957519 147.9402
0498 1419960449 147.8233
0499 1419963378 151.8308
0500 1419966308 150.4271
0501 1419969238 150.2197
0502 1419972167 152.3668
0503 1419975097 151.2678
0504 1419978027 151.9612
0505 1419980957 151.7625
0506 1419983886 153.9980
0507 1419986816 155.9083
0508 1419989746 156.2660
0509 1419992675 161.9363
0510 1419995605 167.4541
0511 1419998535 192.9120
0512 1420001464 240.1933
0513 1420004394 192.4043
0514 1420007324 166.7959
0515 1420010253 161.8620
0516 1420013183 157.1205
0517 1420016113 157.4791
0518 1420019042 153.4879
0519 1420021972 152.8962
0520 1420024902 152.9866
0521 1420027832 154.1080
0522 1420030761 153.3210
0523 1420033691 153.8740
0524 1420036621 152.0462
0525 1420039550 151.2974
0526 1420042480 150.1423
0527 1420045410 149.4831
0528 1420048339 152.1339
0529 1420051269 150.9863
0530 1420054199 150.3212
0531 1420057128 149.5870
0532 1420060058 150.2118
0533 1420062988 149.8210
0534 1420065917 148.3371
0535 1420068847 149.3222
0536 1420071777 150.2014
0537 1420074707 149.4120
0538 1420077636 150.0084
0539 1420080566 148.6351
0540 1420083496 149.7450
0541 1420086425 150.7588
0542 1420089355 150.0640
0543 1420092285 148.8510
0544 1420095214 146.8706
0545 1420098144 148.3497
0546 1420101074 148.1875
0547 1420104003 147.2336
0548 1420106933 146.3563
0549 1420109863 148.5383
0550 1420112792 147.0370
0551 1420115722 147.9818
0552 1420118652 146.7148
0553 1420121582 150.3681
0554 1420124511 149.9526
0555 1420127441 148.6242
0556 1420130371 147.9739
0557 1420133300 147.9035
0558 1420136230 148.0735
0559 1420139160 145.6608
0560 1420142089 146.8697
0561 1420145019 146.6772
0562 1420147949 144.2620
0563 1420150878 146.9014
0564 1420153808 146.9320
0565 1420156738 147.7104
0566 1420159667 146.8882
0567 1420162597 145.9774
0568 1420165527 147.7386
0569 1420168457 148.2234
0570 1420171386 145.6147
0571 1420174316 147.3417
0572 1420177246 147.4214
0573 1420180175 148.0303
0574 1420183105 145.9709
0575 1420186035 145.8571
0576 1420188964 147.3363
0577 1420191894 146.4925
0578 1420194824 146.7980
0579 1420197753 146.5609
0580 1420200683 146.5655
0581 1420203613 147.4277
0582 1420206542 145.0168
0583 1420209472 145.2080
0584 1420212402 146.0625
0585 1420215332 146.4260
0586 1420218261 146.8813
0587 1420221191 146.1644
0588 1420224121 145.7128
0589 1420227050 146.8179
0590 1420229980 146.4657
0591 1420232910 147.6402
0592 1420235839 146.3627
0593 1420238769 147.5139
0594 1420241699 146.7649
0595 1420244628 149.6719
0596 1420247558 147.6307
0597 1420250488 145.4430
0598 1420253417 145.2635
0599 1420256347 146.8175
0600 1420259277 147.9659
0601 1420262207 145.8553
0602 1420265136 148.1011
0603 1420268066 147.4560
0604 1420270996 147.7726
0605 1420273925 147.9186
0606 1420276855 148.4415
0607 1420279785 148.2811
0608 1420282714 148.5973
0609 1420285644 148.2165
0610 1420288574 147.3873
0611 1420291503 149.0700
0612 1420294433 148.7818
0613 1420297363 147.9975
0614 1420300292 150.7157
0615 1420303222 148.2520
0616 1420306152 147.0305
0617 1420309082 149.4967
0618 1420312011 149.7598
0619 1420314941 150.2885
0620 1420317871 152.7388
0621 1420320800 148.9937
0622 1420323730 151.8304
0623 1420326660 151.3639
0624 1420329589 151.2837
0625 1420332519 151.4414
0626 1420335449 149.5743
0627 1420338378 148.6299
0628 1420341308 148.4620
0629 1420344238 148.6780
0630 1420347167 146.8325
0631 1420350097 147.9566
0632 1420353027 148.9258
0633 1420355957 149.5436
0634 1420358886 150.2647
0635 1420361816 148.2874
0636 1420364746 148.0766
0637 1420367675 147.9366
0638 1420370605 146.2756
0639 1420373535 147.8680
0640 1420376464 145.0262
0641 1420379394 143.9853
0642 1420382324 145.3914
0643 1420385253 146.4572
0644 1420388183 144.1705
0645 1420391113 146.7815
0646 1420394042 146.0859
0647 1420396972 143.9253
0648 1420399902 145.2227
0649 1420402832 143.9011
0650 1420405761 143.0571
0651 1420408691 144.1299
0652 1420411621 146.3219
0653 1420414550 142.5419
0654 1420417480 142.4050
0655 1420420410 141.4106
0656 1420423339 141.8341
0657 1420426269 141.0070
0658 1420429199 141.1330
0659 1420432128 141.8155
0660 1420435058 141.1168
0661 1420437988 139.8080
0662 1420440917 141.3937
0663 1420443847 141.5548
0664 1420446777 141.9118
0665 1420449707 137.2433
0666 1420452636 138.1758
0667 1420455566 138.6902
0668 1420458496 137.0043
0669 1420461425 137.9002
0670 1420464355 140.0651
0671 1420467285 135.6540
0672 1420470214 135.2973
0673 1420473144 135.2111
0674 1420476074 135.9574
0675 1420479003 136.0659
0676 1420481933 133.3809
0677 1420484863 133.6961
0678 1420487792 131.6788
0679 1420490722 135.2960
0680 1420493652 133.7639
0681 1420496582 132.7765
0682 1420499511 131.3628
0683 1420502441 130.7259
0684 1420505371 132.5478
0685 1420508300 133.5321
0686 1420511230 132.0467
0687 1420514160 132.7417
0688 1420517089 132.6018
0689 1420520019 131.6427
0690 1420522949 130.4543
0691 1420525878 130.7028
0692 1420528808 129.8526
0693 1420531738 129.6552
0694 1420534667 129.7248
0695 1420537597 128.4507
0696 1420540527 130.0080
0697 1420543457 128.9670
0698 1420546386 129.0188
0699 1420549316 130.0676
0700 1420552246 128.5116
0701 1420555175 129.2815
0702 1420558105 127.9970
0703 1420561035 128.5655
0704 1420563964 128.6300
0705 1420566894 127.7353
0706 1420569824 123.9018
0707 1420572753 125.9653
0708 1420575683 127.6623
0709 1420578613 126.6975
0710 1420581542 126.2165
0711 1420584472 127.4509
0712 1420587402 126.8664
0713 1420590332 127.0885
0714 1420593261 127.5047
0715 1420596191 126.7257
0716 1420599121 126.2276
0717 1420602050 125.4819
0718 1420604980 125.6800
0719 1420607910 126.4773
0720 1420610839 126.1236
0721 1420613769 126.1460
0722 1420616699 123.4566
0723 1420619628 124.4352
0724 1420622558 125.0937
0725 1420625488 124.0200
0726 1420628417 123.7294
0727 1420631347 124.2749
0728 1420634277 123.7127
0729 1420637207 123.0110
0730 1420640136 124.6610
0731 1420643066 123.5553
0732 1420645996 124.2830
0733 1420648925 125.5482
0734 1420651855 124.2643
0735 1420654785 125.8863
0736 1420657714 123.9700
0737 1420660644 123.2794
0738 1420663574 123.9507
0739 1420666503 124.1049
0740 1420669433 123.0671
0741 1420672363 123.7704
0742 1420675292 123.8474
0743 1420678222 123.0188
0744 1420681152 123.9963
0745 1420684082 122.7696
0746 1420687011 121.7398
0747 1420689941 123.0241
0748 1420692871 121.7265
0749 1420695800 123.4256
0750 1420698730 123.3503
0751 1420701660 121.9053
0752 1420704589 122.0279
0753 1420707519 121.0140
0754 1420710449 122.7276
0755 1420713378 120.9834
0756 1420716308 122.2747
0757 1420719238 120.3715
0758 1420722167 122.8737
0759 1420725097 122.6469
0760 1420728027 122.7067
0761 1420730957 122.4653
0762 1420733886 121.1971
0763 1420736816 121.0412
0764 1420739746 120.0387
0765 1420742675 120.3752
0766 1420745605 121.4789
0767 1420748535 120.0988
0768 1420751464 119.6535
0769 1420754394 121.4391
0770 1420757324 120.9345
0771 1420760253 120.9487
0772 1420763183 119.6767
0773 1420766113 120.9759
0774 1420769042 120.7334
0775 1420771972 120.7296
0776 1420774902 121.5538
0777 1420777832 120.2091
0778 1420780761 118.0292
0779 1420783691 120.0501
0780 1420786621 120.4460
0781 1420789550 118.7390
0782 1420792480 118.5213
0783 1420795410 121.3643
0784 1420798339 119.5672
0785 1420801269 127.2432
0786 1420804199 122.2679
0787 1420807128 119.0837
0788 1420810058 118.9454
0789 1420812988 119.7239
0790 1420815917 118.2195
0791 1420818847 118.1358
0792 1420821777 118.0347
0793 1420824707 118.5231
0794 1420827636 118.8759
0795 1420830566 117.7206
0796 1420833496 117.6932
0797 1420836425 117.5502
0798 1420839355 118.2173
0799 1420842285 116.8489
0800 1420845214 117.3587
0801 1420848144 115.1946
0802 1420851074 117.3049
0803 1420854003 116.3535
0804 1420856933 115.7084
0805 1420859863 116.2758
0806 1420862792 115.4973
0807 1420865722 115.9284
0808 1420868652 115.9818
0809 1420871582 114.9050
0810 1420874511 114.4050
0811 1420877441 113.9647
0812 1420880371 114.3723
0813 1420883300 115.2705
0814 1420886230 113.4116
0815 1420889160 114.9465
0816 1420892089 113.1610
0817 1420895019 115.6777
0818 1420897949 113.0806
0819 1420900878 112.0479
0820 1420903808 111.8951
0821 1420906738 112.8366
0822 1420909667 112.6470
0823 1420912597 110.9197
0824 1420915527 111.8080
0825 1420918457 110.7100
0826 1420921386 110.7422
0827 1420924316 110.9660
0828 1420927246 108.8773
0829 1420930175 108.9108
0830 1420933105 109.4557
0831 1420936035 108.1544
0832 1420938964 109.8933
0833 1420941894 108.2167
0834 1420944824 108.3860
0835 1420947753 107.4329
0836 1420950683 106.4087
0837 1420953613 106.4403
0838 1420956542 106.7273
0839 1420959472 105.8008
0840 1420962402 103.8328
0841 1420965332 103.9525
0842 1420968261 105.2909
0843 1420971191 105.3934
0844 1420974121 103.2683
0845 1420977050 103.5840
0846 1420979980 103.3058
0847 1420982910 101.6088
0848 1420985839 102.4033
0849 1420988769 100.5534
0850 1420991699 101.0266
0851 1420994628 100.3010
0852 1420997558 99.9655
0853 1421000488 99.8762
0854 1421003417 98.9270
0855 1421006347 99.0876
0856 1421009277 97.9018
0857 1421012207 96.9203
0858 1421015136 97.5414
0859 1421018066 95.3820
0860 1421020996 95.8727
0861 1421023925 94.5150
0862 1421026855 94.6248
0863 1421029785 93.6599
0864 1421032714 93.9921
0865 1421035644 93.7191
0866 1421038574 94.6305
0867 1421041503 93.0121
0868 1421044433 92.3006
0869 1421047363 91.1637
0870 1421050292 90.5462
0871 1421053222 90.0684
0872 1421056152 89.2462
0873 1421059082 90.5331
0874 1421062011 88.3144
0875 1421064941 87.3491
0876 1421067871 87.1160
0877 1421070800 85.3879
0878 1421073730 85.2477
0879 1421076660 84.5511
0880 1421079589 83.6775
0881 1421082519 84.0984
0882 1421085449 81.9378
0883 1421088378 82.6511
0884 1421091308 81.7863
0885 1421094238 82.6823
0886 1421097167 80.7784
0887 1421100097 80.6973
0888 1421103027 80.0343
0889 1421105957 77.7145
0890 1421108886 77.5555
0891 1421111816 77.9272
0892 1421114746 76.1706
0893 1421117675 75.7291
0894 1421120605 75.2562
0895 1421123535 74.6217
0896 1421126464 74.4844
0897 1421129394 73.1919
0898 1421132324 72.7483
0899 1421135253 72.7619
0900 1421138183 72.7776
0901 1421141113 70.9100
0902 1421144042 69.4148
0903 1421146972 69.3251
0904 1421149902 68.6132
0905 1421152832 68.4055
0906 1421155761 67.3740
0907 1421158691 66.0910
0908 1421161621 65.6431
0909 1421164550 65.3254
0910 1421167480 65.5852
0911 1421170410 64.4492
0912 1421173339 62.6892
0913 1421176269 61.8281
0914 1421179199 61.3226
0915 1421182128 61.9252
0916 1421185058 61.1335
0917 1421187988 59.9209
0918 1421190917 59.6932
0919 1421193847 58.3506
0920 1421196777 58.1852
0921 1421199707 57.2523
0922 1421202636 56.3966
0923 1421205566 56.2105
0924 1421208496 56.1237
0925 1421211425 54.0491
0926 1421214355 54.0175
0927 1421217285 53.1745
0928 1421220214 51.9604
0929 1421223144 51.7323
0930 1421226074 50.2879
0931 1421229003 50.7037
0932 1421231933 50.1172
0933 1421234863 49.8542
0934 1421237792 48.1189
0935 1421240722 48.1772
0936 1421243652 47.3743
0937 1421246582 46.9464
0938 1421249511 46.5325
0939 1421252441 45.1752
0940 1421255371 45.3538
0941 1421258300 44.3411
0942 1421261230 44.0400
0943 1421264160 43.1881
0944 1421267089 42.5185
0945 1421270019 41.8244
0946 1421272949 41.6433
0947 1421275878 40.5467
0948 1421278808 40.0022
0949 1421281738 38.8892
0950 1421284667 38.6833
0951 1421287597 38.8080
0952 1421290527 37.7216
0953 1421293457 37.3878
0954 1421296386 36.7655
0955 1421299316 36.3499
0956 1421302246 35.3627
0957 1421305175 34.5932
0958 1421308105 34.2846
0959 1421311035 33.6896
0960 1421313964 33.0581
0961 1421316894 32.8675
0962 1421319824 32.1431
0963 1421322753 31.9752
0964 1421325683 31.5837
0965 1421328613 30.8742
0966 1421331542 30.4038
0967 1421334472 30.0530
0968 1421337402 29.9875
0969 1421340332 29.2492
0970 1421343261 28.6647
0971 1421346191 28.2427
0972 1421349121 27.6811
0973 1421352050 27.0963
0974 1421354980 27.0400
0975 1421357910 26.4277
0976 1421360839 25.9456
0977 1421363769 25.5893
0978 1421366699 25.2048
0979 1421369628 25.0139
0980 1421372558 24.5149
0981 1421375488 24.1447
0982 1421378417 24.0569
0983 1421381347 23.3792
0984 1421384277 22.7855
0985 1421387207 22.7892
0986 1421390136 22.1213
0987 1421393066 21.7501
0988 1421395996 21.4569
0989 1421398925 21.1525
0990 1421401855 21.0072
0991 1421404785 20.5099
0992 1421407714 20.1972
0993 1421410644 19.8005
0994 1421413574 19.3327
0995 1421416503 18.8956
0996 1421419433 19.0042
0997 1421422363 19.0269
0998 1421425292 18.8424
0999 1421428222 18.2865
1000 1421431152 17.9874
1001 1421434082 18.0383
1002 1421437011 17.7924
1003 1421439941 17.4133
1004 1421442871 17.2383
1005 1421445800 17.0335
1006 1421448730 16.9457
1007 1421451660 16.7481
1008 1421454589 16.5423
1009 1421457519 16.4049
1010 1421460449 16.1868
1011 1421463378 16.1794
1012 1421466308 16.0370
1013 1421469238 15.9405
1014 1421472167 15.6394
1015 1421475097 15.6694
1016 1421478027 15.7034
1017 1421480957 15.4450
1018 1421483886 15.1770
1019 1421486816 15.2459
1020 1421489746 15.1988
1021 1421492675 15.0017
1022 1421495605 15.0863
1023 1421498535 15.0641
